time,acc_x,acc_y,acc_z,roll,pitch,yaw
2021-09-24 22:41:27.353365,0.0322265625,0.56591796875,0.8525390625,33.629150390625,-1.95556640625,1.8896484375
2021-09-24 22:41:27.354137,0.0322265625,0.56591796875,0.8544921875,33.6236572265625,-1.9500732421875,1.8896484375
2021-09-24 22:41:27.354625,0.03271484375,0.56689453125,0.8515625,33.6236572265625,-1.9500732421875,1.8896484375
2021-09-24 22:41:27.355175,0.033203125,0.5654296875,0.85009765625,33.6236572265625,-1.944580078125,1.8896484375
2021-09-24 22:41:27.355705,0.03466796875,0.56494140625,0.84912109375,33.6236572265625,-1.9390869140625,1.8896484375
2021-09-24 22:41:27.356248,0.03564453125,0.56591796875,0.85205078125,33.6236572265625,-1.9390869140625,1.8896484375
2021-09-24 22:41:27.356761,0.03857421875,0.56494140625,0.85107421875,33.6236572265625,-1.93359375,1.8896484375
2021-09-24 22:41:27.357283,0.0390625,0.56396484375,0.8515625,33.6236572265625,-1.93359375,1.8896484375
2021-09-24 22:41:27.357887,0.037109375,0.5634765625,0.85107421875,33.6236572265625,-1.93359375,1.8896484375
2021-09-24 22:41:27.358535,0.0361328125,0.564453125,0.85107421875,33.6181640625,-1.9390869140625,1.8896484375
2021-09-24 22:41:27.359145,0.03564453125,0.56494140625,0.85498046875,33.6181640625,-1.9390869140625,1.8896484375
2021-09-24 22:41:27.359863,0.03369140625,0.5654296875,0.84912109375,33.6181640625,-1.9390869140625,1.8896484375
2021-09-24 22:41:27.360517,0.03515625,0.56591796875,0.85400390625,33.6126708984375,-1.944580078125,1.8896484375
2021-09-24 22:41:27.361183,0.03369140625,0.56591796875,0.8515625,33.6126708984375,-1.944580078125,1.8896484375
2021-09-24 22:41:27.361916,0.03515625,0.56591796875,0.8515625,33.6126708984375,-1.944580078125,1.8896484375
2021-09-24 22:41:27.362515,0.0361328125,0.5654296875,0.84912109375,33.6126708984375,-1.9390869140625,1.8896484375
2021-09-24 22:41:27.363124,0.03955078125,0.56640625,0.85205078125,33.6126708984375,-1.93359375,1.8896484375
2021-09-24 22:41:27.363761,0.03955078125,0.56689453125,0.8466796875,33.6126708984375,-1.93359375,1.8896484375
2021-09-24 22:41:27.364392,0.037109375,0.5673828125,0.85205078125,33.6126708984375,-1.9390869140625,1.8896484375
2021-09-24 22:41:27.364993,0.03515625,0.56689453125,0.84765625,33.6126708984375,-1.944580078125,1.8896484375
2021-09-24 22:41:27.365679,0.03173828125,0.5654296875,0.85205078125,33.6126708984375,-1.9500732421875,1.8896484375
2021-09-24 22:41:27.366346,0.02783203125,0.56396484375,0.8515625,33.6126708984375,-1.95556640625,1.8896484375
2021-09-24 22:41:27.367002,0.02783203125,0.5673828125,0.849609375,33.6181640625,-1.95556640625,1.8896484375
2021-09-24 22:41:27.367631,0.02783203125,0.56640625,0.8544921875,33.6126708984375,-1.95556640625,1.8896484375
2021-09-24 22:41:27.368242,0.02978515625,0.56591796875,0.849609375,33.6126708984375,-1.944580078125,1.8896484375
2021-09-24 22:41:27.368863,0.03271484375,0.564453125,0.84814453125,33.6181640625,-1.9390869140625,1.8896484375
2021-09-24 22:41:27.369556,0.037109375,0.5634765625,0.85107421875,33.6181640625,-1.93359375,1.8896484375
2021-09-24 22:41:27.370151,0.037109375,0.56298828125,0.84912109375,33.6181640625,-1.93359375,1.8896484375
2021-09-24 22:41:27.374328,0.0400390625,0.564453125,0.84912109375,33.6126708984375,-1.93359375,1.8896484375
2021-09-24 22:41:27.374671,0.03662109375,0.56689453125,0.85107421875,33.6126708984375,-1.93359375,1.8896484375
2021-09-24 22:41:27.374972,0.03515625,0.5693359375,0.84912109375,33.607177734375,-1.93359375,1.8896484375
2021-09-24 22:41:27.375259,0.03369140625,0.5703125,0.8525390625,33.607177734375,-1.9390869140625,1.8896484375
2021-09-24 22:41:27.375625,0.033203125,0.5673828125,0.84765625,33.6126708984375,-1.9390869140625,1.8896484375
2021-09-24 22:41:27.375905,0.03466796875,0.56640625,0.84814453125,33.6126708984375,-1.9390869140625,1.8896484375
2021-09-24 22:41:27.376176,0.03466796875,0.56396484375,0.85107421875,33.6181640625,-1.9390869140625,1.8896484375
2021-09-24 22:41:27.376440,0.03466796875,0.56396484375,0.84912109375,33.6181640625,-1.93359375,1.8896484375
2021-09-24 22:41:27.376699,0.037109375,0.5654296875,0.85205078125,33.6181640625,-1.9281005859375,1.8896484375
2021-09-24 22:41:27.376990,0.03759765625,0.56591796875,0.84912109375,33.6181640625,-1.9281005859375,1.8896484375
2021-09-24 22:41:27.377290,0.03662109375,0.5673828125,0.85205078125,33.6181640625,-1.93359375,1.8896484375
2021-09-24 22:41:27.377557,0.03515625,0.56396484375,0.849609375,33.6181640625,-1.9390869140625,1.8896484375
2021-09-24 22:41:27.377818,0.0322265625,0.564453125,0.849609375,33.6181640625,-1.944580078125,1.8896484375
2021-09-24 22:41:27.378058,0.0341796875,0.5654296875,0.85009765625,33.6181640625,-1.944580078125,1.8896484375
2021-09-24 22:41:27.378251,0.03466796875,0.56689453125,0.8515625,33.6126708984375,-1.944580078125,1.8896484375
2021-09-24 22:41:27.378462,0.03466796875,0.5673828125,0.85107421875,33.6181640625,-1.944580078125,1.8896484375
2021-09-24 22:41:27.378675,0.03369140625,0.56640625,0.85009765625,33.6181640625,-1.944580078125,1.8896484375
2021-09-24 22:41:27.378876,0.03515625,0.56396484375,0.84814453125,33.6236572265625,-1.944580078125,1.8896484375
2021-09-24 22:41:27.379088,0.0361328125,0.5634765625,0.84814453125,33.6236572265625,-1.9390869140625,1.8896484375
2021-09-24 22:41:27.379331,0.03564453125,0.56494140625,0.85205078125,33.6181640625,-1.944580078125,1.8896484375
2021-09-24 22:41:27.379628,0.03564453125,0.568359375,0.84912109375,33.6181640625,-1.9390869140625,1.8896484375
2021-09-24 22:41:27.379934,0.03515625,0.568359375,0.8525390625,33.6181640625,-1.9390869140625,1.8896484375
2021-09-24 22:41:27.380247,0.03515625,0.56591796875,0.84814453125,33.6181640625,-1.9390869140625,1.8896484375
2021-09-24 22:41:27.380552,0.0341796875,0.56396484375,0.84765625,33.6236572265625,-1.944580078125,1.8896484375
2021-09-24 22:41:27.380857,0.03271484375,0.56201171875,0.85009765625,33.6236572265625,-1.944580078125,1.8896484375
2021-09-24 22:41:27.381152,0.03271484375,0.56591796875,0.84912109375,33.6236572265625,-1.944580078125,1.8896484375
2021-09-24 22:41:27.381459,0.033203125,0.56640625,0.8505859375,33.6181640625,-1.9390869140625,1.8896484375
2021-09-24 22:41:27.381770,0.0341796875,0.5673828125,0.8505859375,33.6181640625,-1.9390869140625,1.8896484375
2021-09-24 22:41:27.382089,0.03515625,0.5654296875,0.85009765625,33.6181640625,-1.93359375,1.8896484375
2021-09-24 22:41:27.382402,0.03515625,0.5654296875,0.85302734375,33.6181640625,-1.93359375,1.8896484375
2021-09-24 22:41:27.382698,0.03564453125,0.56396484375,0.85302734375,33.6181640625,-1.93359375,1.8896484375
2021-09-24 22:41:27.383009,0.037109375,0.564453125,0.85205078125,33.6181640625,-1.93359375,1.8896484375
2021-09-24 22:41:27.383235,0.03662109375,0.56298828125,0.853515625,33.6126708984375,-1.93359375,1.8896484375
2021-09-24 22:41:27.383462,0.03662109375,0.56298828125,0.853515625,33.607177734375,-1.93359375,1.8896484375
2021-09-24 22:41:27.383689,0.03662109375,0.56591796875,0.8525390625,33.607177734375,-1.93359375,1.8896484375
2021-09-24 22:41:27.383929,0.0390625,0.56640625,0.85205078125,33.607177734375,-1.93359375,1.8896484375
2021-09-24 22:41:27.384158,0.03662109375,0.56494140625,0.853515625,33.607177734375,-1.9390869140625,1.8896484375
2021-09-24 22:41:27.384401,0.0361328125,0.56396484375,0.8505859375,33.607177734375,-1.9390869140625,1.8896484375
2021-09-24 22:41:27.384642,0.03271484375,0.56640625,0.85400390625,33.607177734375,-1.9390869140625,1.8896484375
2021-09-24 22:41:27.384892,0.03369140625,0.56591796875,0.8515625,33.6016845703125,-1.9390869140625,1.8896484375
2021-09-24 22:41:27.385140,0.03466796875,0.56787109375,0.8525390625,33.6016845703125,-1.93359375,1.8896484375
2021-09-24 22:41:27.385400,0.03564453125,0.57080078125,0.84716796875,33.6016845703125,-1.93359375,1.8896484375
2021-09-24 22:41:27.385648,0.03662109375,0.56640625,0.85205078125,33.607177734375,-1.9390869140625,1.8896484375
2021-09-24 22:41:27.385887,0.0361328125,0.56396484375,0.8486328125,33.6126708984375,-1.944580078125,1.8896484375
2021-09-24 22:41:27.386130,0.0361328125,0.5634765625,0.8486328125,33.6126708984375,-1.944580078125,1.8896484375
2021-09-24 22:41:27.386371,0.0361328125,0.564453125,0.85107421875,33.6126708984375,-1.9500732421875,1.8896484375
2021-09-24 22:41:27.386616,0.03271484375,0.56640625,0.84912109375,33.6126708984375,-1.9500732421875,1.8896484375
2021-09-24 22:41:27.386843,0.0322265625,0.56982421875,0.85107421875,33.6126708984375,-1.944580078125,1.8896484375
2021-09-24 22:41:27.387064,0.03271484375,0.5673828125,0.85205078125,33.6126708984375,-1.944580078125,1.8896484375
2021-09-24 22:41:27.387282,0.033203125,0.56494140625,0.84765625,33.6126708984375,-1.944580078125,1.8896484375
2021-09-24 22:41:27.387512,0.0341796875,0.56298828125,0.85205078125,33.6126708984375,-1.944580078125,1.8896484375
2021-09-24 22:41:27.387756,0.03271484375,0.564453125,0.84912109375,33.6126708984375,-1.9390869140625,1.8896484375
2021-09-24 22:41:27.388020,0.03369140625,0.5654296875,0.85302734375,33.607177734375,-1.9390869140625,1.8896484375
2021-09-24 22:41:27.388220,0.0341796875,0.56494140625,0.85205078125,33.607177734375,-1.93359375,1.8896484375
2021-09-24 22:41:27.388415,0.0341796875,0.56591796875,0.85107421875,33.607177734375,-1.93359375,1.8896484375
2021-09-24 22:41:27.388616,0.0341796875,0.56591796875,0.853515625,33.607177734375,-1.93359375,1.8896484375
2021-09-24 22:41:27.388828,0.03515625,0.5654296875,0.8505859375,33.607177734375,-1.93359375,1.8896484375
2021-09-24 22:41:27.389034,0.03515625,0.56640625,0.85205078125,33.607177734375,-1.93359375,1.8896484375
2021-09-24 22:41:27.389245,0.03564453125,0.56689453125,0.85302734375,33.607177734375,-1.93359375,1.8896484375
2021-09-24 22:41:27.389452,0.03369140625,0.5654296875,0.85107421875,33.607177734375,-1.93359375,1.8896484375
2021-09-24 22:41:27.389656,0.03759765625,0.56689453125,0.85205078125,33.607177734375,-1.93359375,1.8896484375
2021-09-24 22:41:27.389860,0.0361328125,0.5673828125,0.85107421875,33.607177734375,-1.93359375,1.8896484375
2021-09-24 22:41:27.390062,0.0361328125,0.5654296875,0.84814453125,33.607177734375,-1.9390869140625,1.8896484375
2021-09-24 22:41:27.390269,0.03564453125,0.56640625,0.84912109375,33.607177734375,-1.9390869140625,1.8896484375
2021-09-24 22:41:27.390473,0.03662109375,0.5654296875,0.8486328125,33.6126708984375,-1.9390869140625,1.8896484375
2021-09-24 22:41:27.390666,0.0341796875,0.56494140625,0.85009765625,33.6126708984375,-1.944580078125,1.8896484375
2021-09-24 22:41:27.390851,0.03564453125,0.5654296875,0.8515625,33.6126708984375,-1.944580078125,1.8896484375
2021-09-24 22:41:27.391033,0.0341796875,0.56494140625,0.84716796875,33.6126708984375,-1.944580078125,1.8896484375
2021-09-24 22:41:27.391226,0.03662109375,0.56689453125,0.85107421875,33.6126708984375,-1.9500732421875,1.8896484375
2021-09-24 22:41:27.391409,0.03515625,0.56591796875,0.8544921875,33.6126708984375,-1.9500732421875,1.8896484375
2021-09-24 22:41:27.391592,0.03564453125,0.56494140625,0.85107421875,33.6126708984375,-1.9500732421875,1.8896484375
2021-09-24 22:41:27.391777,0.033203125,0.5634765625,0.85302734375,33.607177734375,-1.9500732421875,1.8896484375
2021-09-24 22:41:27.391960,0.03125,0.56640625,0.8515625,33.607177734375,-1.944580078125,1.8896484375
2021-09-24 22:41:27.392138,0.033203125,0.56884765625,0.8525390625,33.607177734375,-1.944580078125,1.8896484375
2021-09-24 22:41:27.392318,0.0361328125,0.568359375,0.85595703125,33.607177734375,-1.944580078125,1.8896484375
2021-09-24 22:41:27.392499,0.03662109375,0.56787109375,0.8486328125,33.6126708984375,-1.944580078125,1.8896484375
2021-09-24 22:41:27.392682,0.03564453125,0.56640625,0.85595703125,33.607177734375,-1.9390869140625,1.8896484375
2021-09-24 22:41:27.392881,0.03564453125,0.56689453125,0.84912109375,33.6126708984375,-1.9390869140625,1.8896484375
2021-09-24 22:41:27.393080,0.03515625,0.5654296875,0.8525390625,33.6126708984375,-1.9390869140625,1.8896484375
2021-09-24 22:41:27.393268,0.03759765625,0.56640625,0.8515625,33.6126708984375,-1.9390869140625,1.8896484375
2021-09-24 22:41:27.393442,0.0361328125,0.5654296875,0.8544921875,33.607177734375,-1.9390869140625,1.8896484375
2021-09-24 22:41:27.393607,0.03515625,0.564453125,0.8466796875,33.6126708984375,-1.944580078125,1.8896484375
2021-09-24 22:41:27.393781,0.0361328125,0.5634765625,0.853515625,33.607177734375,-1.944580078125,1.8896484375
2021-09-24 22:41:27.393949,0.03369140625,0.5654296875,0.8564453125,33.607177734375,-1.944580078125,1.8896484375
2021-09-24 22:41:27.394114,0.03271484375,0.5673828125,0.84765625,33.607177734375,-1.944580078125,1.8896484375
2021-09-24 22:41:27.394280,0.03515625,0.5673828125,0.8603515625,33.607177734375,-1.9390869140625,1.8896484375
2021-09-24 22:41:27.394444,0.03515625,0.56591796875,0.8447265625,33.607177734375,-1.9390869140625,1.8896484375
2021-09-24 22:41:27.394609,0.037109375,0.5673828125,0.8544921875,33.607177734375,-1.9390869140625,1.8896484375
2021-09-24 22:41:27.394777,0.03662109375,0.56640625,0.8505859375,33.607177734375,-1.9390869140625,1.8896484375
2021-09-24 22:41:27.394943,0.03662109375,0.56640625,0.85107421875,33.607177734375,-1.9390869140625,1.8896484375
2021-09-24 22:41:27.395109,0.03662109375,0.56494140625,0.84814453125,33.607177734375,-1.944580078125,1.8896484375
2021-09-24 22:41:27.395277,0.03466796875,0.56494140625,0.85009765625,33.6126708984375,-1.9500732421875,1.8896484375
2021-09-24 22:41:27.395444,0.03369140625,0.5654296875,0.84765625,33.6126708984375,-1.9500732421875,1.8896484375
2021-09-24 22:41:27.395608,0.03369140625,0.56640625,0.85009765625,33.6126708984375,-1.9500732421875,1.8896484375
2021-09-24 22:41:27.395766,0.033203125,0.56591796875,0.85107421875,33.6126708984375,-1.95556640625,1.8896484375
2021-09-24 22:41:27.395927,0.033203125,0.5654296875,0.8505859375,33.6126708984375,-1.9500732421875,1.8896484375
2021-09-24 22:41:27.396094,0.03466796875,0.5654296875,0.85009765625,33.6126708984375,-1.9500732421875,1.8896484375
2021-09-24 22:41:27.396264,0.03369140625,0.56640625,0.85009765625,33.6126708984375,-1.9500732421875,1.8896484375
2021-09-24 22:41:27.396443,0.0361328125,0.56640625,0.85302734375,33.6126708984375,-1.944580078125,1.8896484375
2021-09-24 22:41:27.396625,0.03564453125,0.56689453125,0.85302734375,33.6126708984375,-1.944580078125,1.8896484375
2021-09-24 22:41:27.396787,0.03564453125,0.56689453125,0.853515625,33.6126708984375,-1.944580078125,1.8896484375
2021-09-24 22:41:27.396953,0.03662109375,0.56494140625,0.85302734375,33.607177734375,-1.944580078125,1.8896484375
2021-09-24 22:41:27.397117,0.03662109375,0.56494140625,0.85205078125,33.607177734375,-1.944580078125,1.8896484375
2021-09-24 22:41:27.397300,0.0361328125,0.564453125,0.85107421875,33.607177734375,-1.944580078125,1.8896484375
2021-09-24 22:41:27.397470,0.03564453125,0.5654296875,0.84912109375,33.607177734375,-1.944580078125,1.8896484375
2021-09-24 22:41:27.397636,0.03515625,0.56494140625,0.84814453125,33.607177734375,-1.9500732421875,1.8896484375
2021-09-24 22:41:27.397796,0.03369140625,0.56591796875,0.853515625,33.607177734375,-1.9500732421875,1.8896484375
2021-09-24 22:41:27.397954,0.03173828125,0.56591796875,0.85107421875,33.607177734375,-1.9500732421875,1.8896484375
2021-09-24 22:41:27.398113,0.0341796875,0.56591796875,0.8515625,33.607177734375,-1.9500732421875,1.8896484375
2021-09-24 22:41:27.398267,0.0361328125,0.56689453125,0.85498046875,33.607177734375,-1.9500732421875,1.8896484375
2021-09-24 22:41:27.398419,0.0341796875,0.56640625,0.8505859375,33.607177734375,-1.9500732421875,1.8896484375
2021-09-24 22:41:27.398570,0.037109375,0.5673828125,0.85107421875,33.607177734375,-1.944580078125,1.8896484375
2021-09-24 22:41:27.398723,0.03662109375,0.5693359375,0.8486328125,33.6126708984375,-1.944580078125,1.8896484375
2021-09-24 22:41:27.398873,0.03662109375,0.56982421875,0.84619140625,33.6126708984375,-1.944580078125,1.8896484375
2021-09-24 22:41:27.399026,0.0380859375,0.568359375,0.8544921875,33.6126708984375,-1.944580078125,1.8896484375
2021-09-24 22:41:27.399179,0.03662109375,0.56689453125,0.85107421875,33.6181640625,-1.9500732421875,1.8896484375
2021-09-24 22:41:27.399332,0.0341796875,0.56494140625,0.8515625,33.6181640625,-1.95556640625,1.8896484375
2021-09-24 22:41:27.399486,0.03369140625,0.5634765625,0.85400390625,33.6181640625,-1.9610595703125,1.8896484375
2021-09-24 22:41:27.399654,0.03173828125,0.5634765625,0.8466796875,33.6181640625,-1.9610595703125,1.8896484375
2021-09-24 22:41:27.399812,0.03173828125,0.56396484375,0.8515625,33.6181640625,-1.9610595703125,1.8896484375
2021-09-24 22:41:27.399980,0.0302734375,0.56640625,0.8505859375,33.6126708984375,-1.95556640625,1.8896484375
2021-09-24 22:41:27.400127,0.03125,0.568359375,0.8515625,33.6126708984375,-1.9500732421875,1.8896484375
2021-09-24 22:41:27.400282,0.0361328125,0.56982421875,0.85498046875,33.6126708984375,-1.944580078125,1.8896484375
2021-09-24 22:41:27.400447,0.0361328125,0.56640625,0.85107421875,33.6126708984375,-1.944580078125,1.8896484375
2021-09-24 22:41:27.400616,0.0361328125,0.56591796875,0.8505859375,33.6181640625,-1.944580078125,1.8896484375
2021-09-24 22:41:27.400790,0.03564453125,0.5634765625,0.84619140625,33.6181640625,-1.944580078125,1.8896484375
2021-09-24 22:41:27.400976,0.03515625,0.56396484375,0.8486328125,33.6181640625,-1.944580078125,1.8896484375
2021-09-24 22:41:27.401144,0.0341796875,0.5654296875,0.85009765625,33.6181640625,-1.944580078125,1.8896484375
2021-09-24 22:41:27.401329,0.0341796875,0.56787109375,0.84912109375,33.6181640625,-1.944580078125,1.8896484375
2021-09-24 22:41:27.401503,0.03564453125,0.568359375,0.85205078125,33.6181640625,-1.9500732421875,1.8896484375
2021-09-24 22:41:27.401681,0.0341796875,0.56591796875,0.8515625,33.6181640625,-1.944580078125,1.8896484375
2021-09-24 22:41:27.401860,0.0341796875,0.5654296875,0.85009765625,33.6181640625,-1.9500732421875,1.8896484375
2021-09-24 22:41:27.402063,0.03515625,0.56494140625,0.849609375,33.6181640625,-1.944580078125,1.8896484375
2021-09-24 22:41:27.402212,0.03466796875,0.56640625,0.85302734375,33.6181640625,-1.9390869140625,1.8896484375
2021-09-24 22:41:27.402374,0.03564453125,0.5673828125,0.84814453125,33.6181640625,-1.9390869140625,1.8896484375
2021-09-24 22:41:27.402533,0.037109375,0.56640625,0.8515625,33.6181640625,-1.9390869140625,1.8896484375
2021-09-24 22:41:27.402686,0.03515625,0.5673828125,0.8486328125,33.6236572265625,-1.944580078125,1.8896484375
2021-09-24 22:41:27.402842,0.0380859375,0.5673828125,0.849609375,33.6236572265625,-1.9500732421875,1.8896484375
2021-09-24 22:41:27.403002,0.03564453125,0.56689453125,0.849609375,33.6236572265625,-1.9500732421875,1.8896484375
2021-09-24 22:41:27.403159,0.03564453125,0.56640625,0.84619140625,33.6236572265625,-1.95556640625,1.8896484375
2021-09-24 22:41:27.403315,0.03466796875,0.56640625,0.85107421875,33.6236572265625,-1.95556640625,1.8896484375
2021-09-24 22:41:27.403470,0.03564453125,0.56640625,0.85107421875,33.6236572265625,-1.95556640625,1.8896484375
2021-09-24 22:41:27.403630,0.033203125,0.56591796875,0.84716796875,33.629150390625,-1.95556640625,1.8896484375
2021-09-24 22:41:27.403791,0.03515625,0.5654296875,0.85498046875,33.6236572265625,-1.95556640625,1.8896484375
2021-09-24 22:41:27.403952,0.03271484375,0.56640625,0.85009765625,33.6236572265625,-1.95556640625,1.8896484375
2021-09-24 22:41:27.404112,0.03515625,0.5654296875,0.85107421875,33.6236572265625,-1.9500732421875,1.8896484375
2021-09-24 22:41:27.404269,0.03564453125,0.5654296875,0.849609375,33.6236572265625,-1.9500732421875,1.8896484375
2021-09-24 22:41:27.404430,0.03515625,0.56591796875,0.8505859375,33.6236572265625,-1.9500732421875,1.8896484375
2021-09-24 22:41:27.404593,0.037109375,0.56591796875,0.8505859375,33.6236572265625,-1.9500732421875,1.8896484375
2021-09-24 22:41:27.404755,0.03564453125,0.5654296875,0.84716796875,33.6236572265625,-1.9500732421875,1.8896484375
2021-09-24 22:41:27.404917,0.03466796875,0.56640625,0.8515625,33.6236572265625,-1.9500732421875,1.8896484375
2021-09-24 22:41:27.405076,0.03173828125,0.56640625,0.8486328125,33.629150390625,-1.9500732421875,1.8896484375
2021-09-24 22:41:27.405250,0.03466796875,0.5654296875,0.85009765625,33.629150390625,-1.9500732421875,1.8896484375
2021-09-24 22:41:27.405409,0.0361328125,0.56494140625,0.85009765625,33.629150390625,-1.9500732421875,1.8896484375
2021-09-24 22:41:27.405563,0.03564453125,0.56591796875,0.85107421875,33.629150390625,-1.9500732421875,1.8896484375
2021-09-24 22:41:27.405727,0.03564453125,0.56787109375,0.85009765625,33.629150390625,-1.9500732421875,1.8896484375
2021-09-24 22:41:27.405886,0.03466796875,0.56494140625,0.85205078125,33.629150390625,-1.9500732421875,1.8896484375
2021-09-24 22:41:27.406039,0.0361328125,0.56640625,0.849609375,33.629150390625,-1.95556640625,1.8896484375
2021-09-24 22:41:27.406188,0.0361328125,0.5673828125,0.85107421875,33.629150390625,-1.95556640625,1.8896484375
2021-09-24 22:41:27.406334,0.03564453125,0.56494140625,0.8505859375,33.629150390625,-1.95556640625,1.8896484375
2021-09-24 22:41:27.406491,0.0361328125,0.56640625,0.8505859375,33.629150390625,-1.9610595703125,1.8896484375
2021-09-24 22:41:27.406653,0.03662109375,0.5673828125,0.849609375,33.629150390625,-1.9610595703125,1.8896484375
2021-09-24 22:41:27.406820,0.03466796875,0.5673828125,0.85009765625,33.629150390625,-1.9610595703125,1.8896484375
2021-09-24 22:41:27.406988,0.03369140625,0.56640625,0.84912109375,33.629150390625,-1.9610595703125,1.8896484375
2021-09-24 22:41:27.407157,0.03369140625,0.56494140625,0.849609375,33.629150390625,-1.9610595703125,1.8896484375
2021-09-24 22:41:27.407317,0.03564453125,0.56298828125,0.84814453125,33.6346435546875,-1.9610595703125,1.8896484375
2021-09-24 22:41:27.407482,0.03466796875,0.5654296875,0.85009765625,33.6346435546875,-1.9610595703125,1.8896484375
2021-09-24 22:41:27.407638,0.03466796875,0.564453125,0.85107421875,33.629150390625,-1.9610595703125,1.8896484375
2021-09-24 22:41:27.407788,0.03466796875,0.5654296875,0.8505859375,33.629150390625,-1.9610595703125,1.8896484375
2021-09-24 22:41:27.407937,0.03515625,0.56640625,0.8525390625,33.629150390625,-1.9610595703125,1.8896484375
2021-09-24 22:41:27.408086,0.03564453125,0.56640625,0.8515625,33.629150390625,-1.9610595703125,1.8896484375
2021-09-24 22:41:27.408249,0.03466796875,0.5654296875,0.8515625,33.629150390625,-1.9610595703125,1.8896484375
2021-09-24 22:41:27.408417,0.0341796875,0.56591796875,0.8525390625,33.629150390625,-1.9610595703125,1.8896484375
2021-09-24 22:41:27.408579,0.0361328125,0.564453125,0.853515625,33.629150390625,-1.95556640625,1.8896484375
2021-09-24 22:41:27.408735,0.03564453125,0.5654296875,0.85009765625,33.629150390625,-1.95556640625,1.8896484375
2021-09-24 22:41:27.408904,0.0361328125,0.56640625,0.85009765625,33.629150390625,-1.95556640625,1.8896484375
2021-09-24 22:41:27.409059,0.03759765625,0.56591796875,0.8544921875,33.629150390625,-1.95556640625,1.8896484375
2021-09-24 22:41:27.409217,0.037109375,0.56298828125,0.8505859375,33.6236572265625,-1.9610595703125,1.8896484375
2021-09-24 22:41:27.409381,0.0361328125,0.56494140625,0.85205078125,33.6236572265625,-1.9610595703125,1.8896484375
2021-09-24 22:41:27.409527,0.03466796875,0.564453125,0.84814453125,33.6236572265625,-1.9610595703125,1.8896484375
2021-09-24 22:41:27.409651,0.03125,0.56591796875,0.849609375,33.6236572265625,-1.9610595703125,1.8896484375
2021-09-24 22:41:27.409774,0.0341796875,0.56640625,0.8544921875,33.6236572265625,-1.95556640625,1.8896484375
2021-09-24 22:41:27.409900,0.03369140625,0.56689453125,0.8525390625,33.6236572265625,-1.95556640625,1.8896484375
2021-09-24 22:41:27.410010,0.03515625,0.56591796875,0.85205078125,33.6236572265625,-1.95556640625,1.8896484375
2021-09-24 22:41:27.410130,0.0361328125,0.56689453125,0.85009765625,33.6236572265625,-1.95556640625,1.8896484375
2021-09-24 22:41:27.410251,0.0361328125,0.564453125,0.84716796875,33.6236572265625,-1.95556640625,1.8896484375
2021-09-24 22:41:27.410374,0.03515625,0.5654296875,0.849609375,33.6236572265625,-1.95556640625,1.8896484375
2021-09-24 22:41:27.410509,0.03564453125,0.56494140625,0.849609375,33.6236572265625,-1.95556640625,1.8896484375
2021-09-24 22:41:27.410646,0.0341796875,0.5654296875,0.8505859375,33.6236572265625,-1.95556640625,1.8896484375
2021-09-24 22:41:27.410775,0.03466796875,0.5673828125,0.8544921875,33.6236572265625,-1.9610595703125,1.8896484375
2021-09-24 22:41:27.410899,0.03369140625,0.56640625,0.8505859375,33.6236572265625,-1.9610595703125,1.8896484375
2021-09-24 22:41:27.411031,0.033203125,0.56689453125,0.8486328125,33.629150390625,-1.9610595703125,1.8896484375
2021-09-24 22:41:27.411138,0.03466796875,0.5654296875,0.849609375,33.629150390625,-1.9610595703125,1.8896484375
2021-09-24 22:41:27.411242,0.0341796875,0.56591796875,0.849609375,33.629150390625,-1.95556640625,1.8896484375
2021-09-24 22:41:27.411344,0.0380859375,0.5693359375,0.85107421875,33.629150390625,-1.95556640625,1.8896484375
2021-09-24 22:41:27.411446,0.03515625,0.568359375,0.853515625,33.629150390625,-1.95556640625,1.8896484375
2021-09-24 22:41:27.411551,0.03515625,0.5673828125,0.8505859375,33.629150390625,-1.9610595703125,1.8896484375
2021-09-24 22:41:27.411664,0.0322265625,0.56640625,0.85107421875,33.629150390625,-1.95556640625,1.8896484375
2021-09-24 22:41:27.411777,0.0341796875,0.5654296875,0.84814453125,33.629150390625,-1.95556640625,1.8896484375
2021-09-24 22:41:27.411881,0.03564453125,0.5654296875,0.85107421875,33.629150390625,-1.95556640625,1.8896484375
2021-09-24 22:41:27.412007,0.0341796875,0.56494140625,0.84765625,33.629150390625,-1.95556640625,1.8896484375
2021-09-24 22:41:27.412126,0.0361328125,0.56591796875,0.84912109375,33.629150390625,-1.95556640625,1.8896484375
2021-09-24 22:41:27.412256,0.03466796875,0.56689453125,0.85107421875,33.629150390625,-1.95556640625,1.8896484375
2021-09-24 22:41:27.412364,0.0341796875,0.5654296875,0.845703125,33.6346435546875,-1.95556640625,1.8896484375
2021-09-24 22:41:27.412468,0.03662109375,0.5654296875,0.85009765625,33.6346435546875,-1.95556640625,1.8896484375
2021-09-24 22:41:27.412570,0.03662109375,0.56640625,0.8515625,33.6346435546875,-1.95556640625,1.8896484375
2021-09-24 22:41:27.412672,0.0361328125,0.56640625,0.849609375,33.6346435546875,-1.95556640625,1.8896484375
2021-09-24 22:41:27.412775,0.03759765625,0.5673828125,0.85302734375,33.6346435546875,-1.95556640625,1.8896484375
2021-09-24 22:41:27.415604,0.037109375,0.56689453125,0.85009765625,33.6346435546875,-1.9610595703125,1.8896484375
2021-09-24 22:41:27.415844,0.0361328125,0.56591796875,0.85009765625,33.6346435546875,-1.9610595703125,1.8896484375
2021-09-24 22:41:27.416025,0.0361328125,0.56640625,0.85302734375,33.6346435546875,-1.9610595703125,1.8896484375
2021-09-24 22:41:27.416179,0.03369140625,0.56689453125,0.8486328125,33.6346435546875,-1.9610595703125,1.8896484375
2021-09-24 22:41:27.416334,0.03369140625,0.56689453125,0.8486328125,33.6346435546875,-1.966552734375,1.8896484375
2021-09-24 22:41:27.416490,0.03173828125,0.5673828125,0.85009765625,33.6346435546875,-1.9610595703125,1.8896484375
2021-09-24 22:41:27.416648,0.033203125,0.56787109375,0.8515625,33.6346435546875,-1.9610595703125,1.8896484375
2021-09-24 22:41:27.416803,0.03564453125,0.56494140625,0.85009765625,33.6346435546875,-1.9610595703125,1.8896484375
2021-09-24 22:41:27.416964,0.0361328125,0.5654296875,0.8486328125,33.6346435546875,-1.9610595703125,1.8896484375
2021-09-24 22:41:27.417129,0.03369140625,0.56591796875,0.85009765625,33.6346435546875,-1.9610595703125,1.8896484375
2021-09-24 22:41:27.417310,0.0361328125,0.56494140625,0.85107421875,33.6346435546875,-1.9610595703125,1.8896484375
2021-09-24 22:41:27.417472,0.03515625,0.56494140625,0.85009765625,33.6346435546875,-1.9610595703125,1.8896484375
2021-09-24 22:41:27.417624,0.0341796875,0.56494140625,0.85302734375,33.6346435546875,-1.9610595703125,1.8896484375
2021-09-24 22:41:27.417773,0.03466796875,0.56640625,0.8525390625,33.6346435546875,-1.9610595703125,1.8896484375
2021-09-24 22:41:27.417926,0.0341796875,0.56689453125,0.85107421875,33.6346435546875,-1.9610595703125,1.8896484375
2021-09-24 22:41:27.418084,0.0341796875,0.56640625,0.85400390625,33.6346435546875,-1.9610595703125,1.8896484375
2021-09-24 22:41:27.418236,0.037109375,0.56494140625,0.85107421875,33.629150390625,-1.9610595703125,1.8896484375
2021-09-24 22:41:27.418382,0.0341796875,0.56494140625,0.8525390625,33.629150390625,-1.9610595703125,1.8896484375
2021-09-24 22:41:27.418529,0.03515625,0.5654296875,0.85400390625,33.629150390625,-1.9610595703125,1.8896484375
2021-09-24 22:41:27.418685,0.03466796875,0.56396484375,0.85009765625,33.629150390625,-1.9610595703125,1.8896484375
2021-09-24 22:41:27.418846,0.03662109375,0.5634765625,0.8515625,33.629150390625,-1.9610595703125,1.8896484375
2021-09-24 22:41:27.419000,0.037109375,0.5673828125,0.85205078125,33.629150390625,-1.9610595703125,1.8896484375
2021-09-24 22:41:27.419151,0.03662109375,0.5654296875,0.84716796875,33.629150390625,-1.9610595703125,1.8896484375
2021-09-24 22:41:27.419302,0.03662109375,0.564453125,0.85400390625,33.629150390625,-1.9610595703125,1.8896484375
2021-09-24 22:41:27.419451,0.03515625,0.56494140625,0.84912109375,33.629150390625,-1.966552734375,1.8896484375
2021-09-24 22:41:27.419605,0.03564453125,0.56494140625,0.8505859375,33.629150390625,-1.966552734375,1.8896484375
2021-09-24 22:41:27.419759,0.03564453125,0.56640625,0.849609375,33.629150390625,-1.966552734375,1.8896484375
2021-09-24 22:41:27.419911,0.0341796875,0.56640625,0.84912109375,33.629150390625,-1.966552734375,1.8896484375
2021-09-24 22:41:27.420062,0.0341796875,0.5654296875,0.8486328125,33.629150390625,-1.9610595703125,1.8896484375
2021-09-24 22:41:27.420208,0.0341796875,0.56640625,0.8505859375,33.629150390625,-1.9610595703125,1.8896484375
2021-09-24 22:41:27.420360,0.0341796875,0.564453125,0.8505859375,33.629150390625,-1.9610595703125,1.8896484375
2021-09-24 22:41:27.420509,0.03369140625,0.5654296875,0.85009765625,33.629150390625,-1.9610595703125,1.8896484375
2021-09-24 22:41:27.420668,0.03466796875,0.5673828125,0.85302734375,33.6236572265625,-1.9610595703125,1.8896484375
2021-09-24 22:41:27.420826,0.03369140625,0.56787109375,0.85302734375,33.6236572265625,-1.9610595703125,1.8896484375
2021-09-24 22:41:27.420979,0.033203125,0.5673828125,0.8505859375,33.6236572265625,-1.9610595703125,1.8896484375
2021-09-24 22:41:27.421135,0.03369140625,0.56689453125,0.84912109375,33.6236572265625,-1.95556640625,1.8896484375
2021-09-24 22:41:27.421309,0.03564453125,0.56640625,0.8525390625,33.6236572265625,-1.9610595703125,1.8896484375
2021-09-24 22:41:27.421469,0.03564453125,0.5654296875,0.8515625,33.629150390625,-1.9610595703125,1.8896484375
2021-09-24 22:41:27.421626,0.03564453125,0.56640625,0.85205078125,33.629150390625,-1.9610595703125,1.8896484375
2021-09-24 22:41:27.421780,0.0341796875,0.56494140625,0.85302734375,33.6236572265625,-1.9610595703125,1.8896484375
2021-09-24 22:41:27.421937,0.0341796875,0.56640625,0.8525390625,33.6236572265625,-1.9610595703125,1.8896484375
2021-09-24 22:41:27.422096,0.03564453125,0.56787109375,0.85302734375,33.6236572265625,-1.95556640625,1.8896484375
2021-09-24 22:41:27.422261,0.033203125,0.568359375,0.8525390625,33.629150390625,-1.95556640625,1.8896484375
2021-09-24 22:41:27.422417,0.03466796875,0.5654296875,0.8525390625,33.6236572265625,-1.95556640625,1.8896484375
2021-09-24 22:41:27.422579,0.03271484375,0.56591796875,0.849609375,33.6236572265625,-1.95556640625,1.8896484375
2021-09-24 22:41:27.422752,0.0341796875,0.56591796875,0.8505859375,33.6236572265625,-1.95556640625,1.8896484375
2021-09-24 22:41:27.422892,0.037109375,0.56396484375,0.85009765625,33.6236572265625,-1.95556640625,1.8896484375
2021-09-24 22:41:27.423015,0.03564453125,0.56689453125,0.84814453125,33.629150390625,-1.95556640625,1.8896484375
2021-09-24 22:41:27.423160,0.03564453125,0.5673828125,0.85205078125,33.629150390625,-1.95556640625,1.8896484375
2021-09-24 22:41:27.423296,0.03466796875,0.56689453125,0.84912109375,33.629150390625,-1.95556640625,1.8896484375
2021-09-24 22:41:27.423426,0.03369140625,0.56640625,0.8505859375,33.629150390625,-1.95556640625,1.8896484375
2021-09-24 22:41:27.423559,0.03515625,0.56494140625,0.85302734375,33.629150390625,-1.95556640625,1.8896484375
2021-09-24 22:41:27.423704,0.0341796875,0.5654296875,0.8505859375,33.629150390625,-1.95556640625,1.8896484375
2021-09-24 22:41:27.423867,0.03369140625,0.5673828125,0.85302734375,33.629150390625,-1.95556640625,1.8896484375
2021-09-24 22:41:27.424018,0.03564453125,0.56787109375,0.85107421875,33.629150390625,-1.95556640625,1.8896484375
2021-09-24 22:41:27.424165,0.033203125,0.56689453125,0.8505859375,33.629150390625,-1.9500732421875,1.8896484375
2021-09-24 22:41:27.424314,0.0341796875,0.56689453125,0.85107421875,33.629150390625,-1.9500732421875,1.8896484375
2021-09-24 22:41:27.424476,0.03466796875,0.56591796875,0.85009765625,33.629150390625,-1.9500732421875,1.8896484375
2021-09-24 22:41:27.424621,0.03515625,0.5654296875,0.8486328125,33.629150390625,-1.9500732421875,1.8896484375
2021-09-24 22:41:27.424777,0.0341796875,0.5673828125,0.849609375,33.629150390625,-1.9500732421875,1.8896484375
2021-09-24 22:41:27.424941,0.03564453125,0.56787109375,0.8486328125,33.6346435546875,-1.9500732421875,1.8896484375
2021-09-24 22:41:27.425109,0.03564453125,0.56787109375,0.8515625,33.6346435546875,-1.9500732421875,1.8896484375
2021-09-24 22:41:27.425286,0.03515625,0.56640625,0.8515625,33.6346435546875,-1.95556640625,1.8896484375
2021-09-24 22:41:27.425453,0.03466796875,0.56689453125,0.85302734375,33.6346435546875,-1.95556640625,1.8896484375
2021-09-24 22:41:27.425610,0.033203125,0.564453125,0.8525390625,33.629150390625,-1.95556640625,1.8896484375
2021-09-24 22:41:27.425775,0.033203125,0.56640625,0.849609375,33.629150390625,-1.9500732421875,1.8896484375
2021-09-24 22:41:27.425938,0.03466796875,0.5654296875,0.853515625,33.629150390625,-1.9500732421875,1.8896484375
2021-09-24 22:41:27.426100,0.03271484375,0.56591796875,0.8505859375,33.629150390625,-1.9500732421875,1.8896484375
2021-09-24 22:41:27.426265,0.0322265625,0.564453125,0.84814453125,33.629150390625,-1.9500732421875,1.8896484375
2021-09-24 22:41:27.426429,0.03515625,0.56591796875,0.8486328125,33.629150390625,-1.9500732421875,1.8896484375
2021-09-24 22:41:27.426592,0.03564453125,0.56640625,0.84814453125,33.6346435546875,-1.9500732421875,1.8896484375
2021-09-24 22:41:27.426748,0.03515625,0.56591796875,0.85107421875,33.6346435546875,-1.9500732421875,1.8896484375
2021-09-24 22:41:27.426877,0.03466796875,0.56640625,0.8525390625,33.6346435546875,-1.9500732421875,1.8896484375
2021-09-24 22:41:27.427038,0.0341796875,0.56494140625,0.84814453125,33.6346435546875,-1.9500732421875,1.8896484375
2021-09-24 22:41:27.427200,0.03662109375,0.5654296875,0.85302734375,33.629150390625,-1.9500732421875,1.8896484375
2021-09-24 22:41:27.427362,0.037109375,0.56494140625,0.84814453125,33.629150390625,-1.9500732421875,1.8896484375
2021-09-24 22:41:27.427526,0.03515625,0.56591796875,0.84912109375,33.6346435546875,-1.9500732421875,1.8896484375
2021-09-24 22:41:27.427687,0.03662109375,0.56689453125,0.85107421875,33.6346435546875,-1.95556640625,1.8896484375
2021-09-24 22:41:27.427840,0.0361328125,0.56494140625,0.84814453125,33.6346435546875,-1.95556640625,1.8896484375
2021-09-24 22:41:27.427998,0.03759765625,0.5654296875,0.85302734375,33.629150390625,-1.95556640625,1.8896484375
2021-09-24 22:41:27.428163,0.0361328125,0.56640625,0.8505859375,33.6346435546875,-1.95556640625,1.8896484375
2021-09-24 22:41:27.428331,0.0361328125,0.5654296875,0.85107421875,33.629150390625,-1.95556640625,1.8896484375
2021-09-24 22:41:27.428496,0.0341796875,0.564453125,0.8515625,33.629150390625,-1.95556640625,1.8896484375
2021-09-24 22:41:27.428660,0.03515625,0.56591796875,0.84912109375,33.629150390625,-1.95556640625,1.8896484375
2021-09-24 22:41:27.428825,0.033203125,0.5654296875,0.84912109375,33.629150390625,-1.95556640625,1.8896484375
2021-09-24 22:41:27.428990,0.033203125,0.56591796875,0.84912109375,33.6346435546875,-1.95556640625,1.8896484375
2021-09-24 22:41:27.429158,0.0341796875,0.56591796875,0.849609375,33.6346435546875,-1.95556640625,1.8896484375
2021-09-24 22:41:27.429349,0.03271484375,0.56640625,0.85302734375,33.629150390625,-1.95556640625,1.8896484375
2021-09-24 22:41:27.429513,0.03271484375,0.56640625,0.85009765625,33.6346435546875,-1.9500732421875,1.8896484375
2021-09-24 22:41:27.429661,0.03466796875,0.56591796875,0.8515625,33.6346435546875,-1.9500732421875,1.8896484375
2021-09-24 22:41:27.429792,0.03466796875,0.56787109375,0.8525390625,33.6346435546875,-1.9500732421875,1.8896484375
2021-09-24 22:41:27.429909,0.0361328125,0.56689453125,0.85009765625,33.6346435546875,-1.9500732421875,1.8896484375
2021-09-24 22:41:27.430029,0.03369140625,0.56640625,0.8505859375,33.6346435546875,-1.9500732421875,1.8896484375
2021-09-24 22:41:27.430142,0.03369140625,0.56591796875,0.8525390625,33.6346435546875,-1.9500732421875,1.8896484375
2021-09-24 22:41:27.430291,0.03662109375,0.56689453125,0.8515625,33.6346435546875,-1.9500732421875,1.8896484375
2021-09-24 22:41:27.430442,0.03515625,0.56640625,0.85205078125,33.6346435546875,-1.9500732421875,1.8896484375
2021-09-24 22:41:27.430596,0.0341796875,0.56640625,0.853515625,33.629150390625,-1.9500732421875,1.8896484375
2021-09-24 22:41:27.430745,0.03466796875,0.56591796875,0.85302734375,33.629150390625,-1.9500732421875,1.8896484375
2021-09-24 22:41:27.430900,0.0341796875,0.56591796875,0.85205078125,33.629150390625,-1.9500732421875,1.8896484375
2021-09-24 22:41:27.431045,0.03466796875,0.5654296875,0.8525390625,33.629150390625,-1.9500732421875,1.8896484375
2021-09-24 22:41:27.431182,0.0341796875,0.56591796875,0.8525390625,33.629150390625,-1.9500732421875,1.8896484375
2021-09-24 22:41:27.431320,0.03369140625,0.56689453125,0.8505859375,33.629150390625,-1.9500732421875,1.8896484375
2021-09-24 22:41:27.431468,0.033203125,0.56591796875,0.85205078125,33.629150390625,-1.9500732421875,1.8896484375
2021-09-24 22:41:27.431617,0.0341796875,0.56494140625,0.85009765625,33.629150390625,-1.9500732421875,1.8896484375
2021-09-24 22:41:27.431808,0.0361328125,0.56640625,0.8486328125,33.629150390625,-1.9500732421875,1.8896484375
2021-09-24 22:41:27.431964,0.0361328125,0.56591796875,0.85107421875,33.629150390625,-1.9500732421875,1.8896484375
2021-09-24 22:41:27.432103,0.03662109375,0.56640625,0.8505859375,33.629150390625,-1.9500732421875,1.8896484375
2021-09-24 22:41:27.432254,0.03515625,0.5673828125,0.8505859375,33.629150390625,-1.9500732421875,1.8896484375
2021-09-24 22:41:27.432405,0.03515625,0.56689453125,0.84912109375,33.629150390625,-1.9500732421875,1.8896484375
2021-09-24 22:41:27.432552,0.03564453125,0.568359375,0.853515625,33.6346435546875,-1.9500732421875,1.8896484375
2021-09-24 22:41:27.432686,0.03515625,0.56494140625,0.85205078125,33.629150390625,-1.9500732421875,1.8896484375
2021-09-24 22:41:27.432833,0.03515625,0.56494140625,0.8544921875,33.629150390625,-1.9500732421875,1.8896484375
2021-09-24 22:41:27.432972,0.03466796875,0.56640625,0.8515625,33.629150390625,-1.9500732421875,1.8896484375
2021-09-24 22:41:27.433117,0.03369140625,0.56591796875,0.849609375,33.629150390625,-1.9500732421875,1.8896484375
2021-09-24 22:41:27.433281,0.03466796875,0.56591796875,0.85302734375,33.629150390625,-1.9500732421875,1.8896484375
2021-09-24 22:41:27.433437,0.03466796875,0.568359375,0.8515625,33.629150390625,-1.9500732421875,1.8896484375
2021-09-24 22:41:27.433584,0.03662109375,0.568359375,0.849609375,33.629150390625,-1.9500732421875,1.8896484375
2021-09-24 22:41:27.433730,0.0361328125,0.56884765625,0.8505859375,33.629150390625,-1.9500732421875,1.8896484375
2021-09-24 22:41:27.433884,0.0361328125,0.56640625,0.8515625,33.629150390625,-1.9500732421875,1.8896484375
2021-09-24 22:41:27.434030,0.03564453125,0.56396484375,0.8515625,33.629150390625,-1.9500732421875,1.8896484375
2021-09-24 22:41:27.434180,0.03466796875,0.5654296875,0.85205078125,33.629150390625,-1.9500732421875,1.8896484375
2021-09-24 22:41:27.434338,0.03515625,0.5654296875,0.85302734375,33.629150390625,-1.95556640625,1.8896484375
2021-09-24 22:41:27.434492,0.0341796875,0.56494140625,0.85107421875,33.629150390625,-1.95556640625,1.8896484375
2021-09-24 22:41:27.434647,0.03564453125,0.56787109375,0.8486328125,33.629150390625,-1.95556640625,1.8896484375
2021-09-24 22:41:27.434806,0.0361328125,0.56884765625,0.85205078125,33.629150390625,-1.95556640625,1.8896484375
2021-09-24 22:41:27.434953,0.03515625,0.56689453125,0.85009765625,33.629150390625,-1.95556640625,1.8896484375
2021-09-24 22:41:27.435108,0.03515625,0.56689453125,0.84912109375,33.629150390625,-1.95556640625,1.8896484375
2021-09-24 22:41:27.435261,0.03369140625,0.56640625,0.85009765625,33.629150390625,-1.95556640625,1.8896484375
2021-09-24 22:41:27.435411,0.03271484375,0.56396484375,0.849609375,33.629150390625,-1.9500732421875,1.8896484375
2021-09-24 22:41:27.435575,0.0341796875,0.56591796875,0.849609375,33.629150390625,-1.9500732421875,1.8896484375
2021-09-24 22:41:27.435757,0.03466796875,0.564453125,0.85009765625,33.629150390625,-1.9500732421875,1.8896484375
2021-09-24 22:41:27.435920,0.03564453125,0.56591796875,0.85205078125,33.629150390625,-1.9500732421875,1.8896484375
2021-09-24 22:41:27.436062,0.03369140625,0.5654296875,0.84716796875,33.629150390625,-1.9500732421875,1.8896484375
2021-09-24 22:41:27.436217,0.0341796875,0.56591796875,0.84912109375,33.629150390625,-1.9500732421875,1.8896484375
2021-09-24 22:41:27.436379,0.03564453125,0.5654296875,0.85302734375,33.629150390625,-1.9500732421875,1.8896484375
2021-09-24 22:41:27.436536,0.03515625,0.56689453125,0.8525390625,33.629150390625,-1.9500732421875,1.8896484375
2021-09-24 22:41:27.436692,0.037109375,0.56787109375,0.8505859375,33.629150390625,-1.9500732421875,1.8896484375
2021-09-24 22:41:27.436849,0.03662109375,0.56787109375,0.8515625,33.629150390625,-1.9500732421875,1.8896484375
2021-09-24 22:41:27.437002,0.03564453125,0.5673828125,0.8525390625,33.629150390625,-1.9500732421875,1.8896484375
2021-09-24 22:41:27.437153,0.03662109375,0.5673828125,0.85205078125,33.6346435546875,-1.9500732421875,1.8896484375
2021-09-24 22:41:27.437320,0.03466796875,0.56640625,0.8505859375,33.6346435546875,-1.9500732421875,1.8896484375
2021-09-24 22:41:27.437468,0.03466796875,0.564453125,0.84912109375,33.6346435546875,-1.95556640625,1.8896484375
2021-09-24 22:41:27.437572,0.0361328125,0.5634765625,0.85107421875,33.629150390625,-1.95556640625,1.8896484375
2021-09-24 22:41:27.437673,0.03564453125,0.56396484375,0.85107421875,33.629150390625,-1.95556640625,1.8896484375
2021-09-24 22:41:27.437791,0.03369140625,0.5654296875,0.85107421875,33.629150390625,-1.95556640625,1.8896484375
2021-09-24 22:41:27.437938,0.0341796875,0.56591796875,0.8505859375,33.629150390625,-1.95556640625,1.8896484375
2021-09-24 22:41:27.438072,0.0341796875,0.56787109375,0.8505859375,33.629150390625,-1.95556640625,1.8896484375
2021-09-24 22:41:27.438215,0.03369140625,0.5673828125,0.849609375,33.629150390625,-1.9500732421875,1.8896484375
2021-09-24 22:41:27.438367,0.0361328125,0.56591796875,0.849609375,33.629150390625,-1.9500732421875,1.8896484375
2021-09-24 22:41:27.438491,0.03515625,0.564453125,0.85400390625,33.629150390625,-1.9500732421875,1.8896484375
2021-09-24 22:41:27.438616,0.03466796875,0.56591796875,0.849609375,33.629150390625,-1.9500732421875,1.8896484375
2021-09-24 22:41:27.438752,0.0322265625,0.5673828125,0.85009765625,33.629150390625,-1.9500732421875,1.8896484375
2021-09-24 22:41:27.438886,0.03564453125,0.5654296875,0.8525390625,33.629150390625,-1.9500732421875,1.8896484375
2021-09-24 22:41:27.439023,0.03271484375,0.56591796875,0.85302734375,33.629150390625,-1.9500732421875,1.8896484375
2021-09-24 22:41:27.439169,0.0341796875,0.5673828125,0.84814453125,33.629150390625,-1.9500732421875,1.8896484375
2021-09-24 22:41:27.439315,0.03466796875,0.56591796875,0.85107421875,33.629150390625,-1.9500732421875,1.8896484375
2021-09-24 22:41:27.439466,0.0341796875,0.56494140625,0.849609375,33.629150390625,-1.9500732421875,1.8896484375
2021-09-24 22:41:27.439623,0.0341796875,0.56494140625,0.849609375,33.629150390625,-1.9500732421875,1.8896484375
2021-09-24 22:41:27.439766,0.0361328125,0.5654296875,0.8486328125,33.629150390625,-1.944580078125,1.8896484375
2021-09-24 22:41:27.439918,0.03515625,0.56494140625,0.85205078125,33.629150390625,-1.944580078125,1.8896484375
2021-09-24 22:41:27.440067,0.03662109375,0.568359375,0.84912109375,33.629150390625,-1.9390869140625,1.8896484375
2021-09-24 22:41:27.440192,0.0390625,0.5673828125,0.849609375,33.6346435546875,-1.9390869140625,1.8896484375
2021-09-24 22:41:27.440337,0.03662109375,0.5654296875,0.84716796875,33.6346435546875,-1.9390869140625,1.8896484375
2021-09-24 22:41:27.440488,0.03955078125,0.56494140625,0.85009765625,33.6346435546875,-1.944580078125,1.8896484375
2021-09-24 22:41:27.440639,0.037109375,0.5654296875,0.85107421875,33.6346435546875,-1.9500732421875,1.8896484375
2021-09-24 22:41:27.440788,0.0322265625,0.564453125,0.8515625,33.6346435546875,-1.95556640625,1.8896484375
2021-09-24 22:41:27.440930,0.03125,0.56591796875,0.84912109375,33.6346435546875,-1.966552734375,1.8896484375
2021-09-24 22:41:27.441083,0.029296875,0.56396484375,0.8505859375,33.6346435546875,-1.966552734375,1.8896484375
2021-09-24 22:41:27.441273,0.0283203125,0.5625,0.8515625,33.6346435546875,-1.966552734375,1.8896484375
2021-09-24 22:41:27.441417,0.0283203125,0.560546875,0.85546875,33.6346435546875,-1.966552734375,1.8896484375
2021-09-24 22:41:27.441568,0.0302734375,0.56201171875,0.849609375,33.629150390625,-1.95556640625,1.8896484375
2021-09-24 22:41:27.441713,0.033203125,0.56591796875,0.85205078125,33.629150390625,-1.944580078125,1.8896484375
2021-09-24 22:41:27.441843,0.0380859375,0.5693359375,0.84814453125,33.6236572265625,-1.9390869140625,1.8896484375
2021-09-24 22:41:27.441974,0.04052734375,0.568359375,0.845703125,33.629150390625,-1.9281005859375,1.8896484375
2021-09-24 22:41:27.442093,0.04248046875,0.568359375,0.8486328125,33.629150390625,-1.9281005859375,1.8896484375
2021-09-24 22:41:27.442210,0.0419921875,0.56982421875,0.84912109375,33.629150390625,-1.93359375,1.8896484375
2021-09-24 22:41:27.442323,0.03955078125,0.56689453125,0.85009765625,33.6346435546875,-1.9390869140625,1.8896484375
2021-09-24 22:41:27.442436,0.03759765625,0.568359375,0.84765625,33.6346435546875,-1.9500732421875,1.8896484375
2021-09-24 22:41:27.442544,0.03173828125,0.56689453125,0.85009765625,33.6346435546875,-1.9610595703125,1.8896484375
2021-09-24 22:41:27.442653,0.029296875,0.56494140625,0.85205078125,33.6346435546875,-1.966552734375,1.8896484375
2021-09-24 22:41:27.442760,0.0283203125,0.56591796875,0.84765625,33.6346435546875,-1.966552734375,1.8896484375
2021-09-24 22:41:27.442868,0.03076171875,0.568359375,0.84912109375,33.64013671875,-1.9610595703125,1.8896484375
2021-09-24 22:41:27.442971,0.033203125,0.568359375,0.8525390625,33.64013671875,-1.95556640625,1.8896484375
2021-09-24 22:41:27.443075,0.03515625,0.5693359375,0.84814453125,33.64013671875,-1.944580078125,1.8896484375
2021-09-24 22:41:27.443176,0.03857421875,0.56689453125,0.85009765625,33.6456298828125,-1.944580078125,1.8896484375
2021-09-24 22:41:27.443299,0.0390625,0.5654296875,0.85302734375,33.6456298828125,-1.9500732421875,1.8896484375
2021-09-24 22:41:27.443420,0.0341796875,0.5615234375,0.85205078125,33.6456298828125,-1.95556640625,1.8896484375
2021-09-24 22:41:27.443539,0.0341796875,0.56103515625,0.849609375,33.6456298828125,-1.95556640625,1.8896484375
2021-09-24 22:41:27.443671,0.03369140625,0.56591796875,0.84912109375,33.64013671875,-1.95556640625,1.8896484375
2021-09-24 22:41:27.443814,0.033203125,0.56884765625,0.85302734375,33.64013671875,-1.95556640625,1.8896484375
2021-09-24 22:41:27.443951,0.03564453125,0.5673828125,0.85009765625,33.64013671875,-1.9500732421875,1.8896484375
2021-09-24 22:41:27.444095,0.03564453125,0.5654296875,0.85107421875,33.64013671875,-1.944580078125,1.8896484375
2021-09-24 22:41:27.444237,0.04052734375,0.56396484375,0.85302734375,33.64013671875,-1.944580078125,1.8896484375
2021-09-24 22:41:27.444374,0.0390625,0.5654296875,0.85107421875,33.64013671875,-1.9390869140625,1.8896484375
2021-09-24 22:41:27.444499,0.03955078125,0.56591796875,0.853515625,33.64013671875,-1.944580078125,1.8896484375
2021-09-24 22:41:27.444621,0.0361328125,0.56591796875,0.85107421875,33.64013671875,-1.9500732421875,1.8896484375
2021-09-24 22:41:27.444759,0.033203125,0.564453125,0.8525390625,33.6346435546875,-1.9500732421875,1.8896484375
2021-09-24 22:41:27.444896,0.033203125,0.56591796875,0.85302734375,33.6346435546875,-1.95556640625,1.8896484375
2021-09-24 22:41:27.445041,0.033203125,0.56787109375,0.85205078125,33.6346435546875,-1.95556640625,1.8896484375
2021-09-24 22:41:27.445176,0.03271484375,0.56982421875,0.84912109375,33.6346435546875,-1.9500732421875,1.8896484375
2021-09-24 22:41:27.445326,0.03466796875,0.5693359375,0.84912109375,33.6346435546875,-1.9500732421875,1.8896484375
2021-09-24 22:41:27.445474,0.03662109375,0.568359375,0.85107421875,33.64013671875,-1.9500732421875,1.8896484375
2021-09-24 22:41:27.445618,0.037109375,0.56396484375,0.85107421875,33.64013671875,-1.9500732421875,1.8896484375
2021-09-24 22:41:27.445764,0.03515625,0.5634765625,0.85205078125,33.64013671875,-1.9500732421875,1.8896484375
2021-09-24 22:41:27.445873,0.033203125,0.5654296875,0.85009765625,33.64013671875,-1.95556640625,1.8896484375
2021-09-24 22:41:27.446003,0.0361328125,0.56396484375,0.85205078125,33.64013671875,-1.95556640625,1.8896484375
2021-09-24 22:41:27.446155,0.03369140625,0.56640625,0.85205078125,33.64013671875,-1.9610595703125,1.8896484375
2021-09-24 22:41:27.446305,0.02978515625,0.56591796875,0.8515625,33.64013671875,-1.9610595703125,1.8896484375
2021-09-24 22:41:27.446435,0.0302734375,0.56640625,0.8486328125,33.64013671875,-1.9610595703125,1.8896484375
2021-09-24 22:41:27.446564,0.02880859375,0.5654296875,0.8505859375,33.64013671875,-1.9610595703125,1.8896484375
2021-09-24 22:41:27.446698,0.0322265625,0.564453125,0.849609375,33.64013671875,-1.95556640625,1.8896484375
2021-09-24 22:41:27.446816,0.0322265625,0.56640625,0.8505859375,33.64013671875,-1.9500732421875,1.8896484375
2021-09-24 22:41:27.446943,0.03515625,0.5654296875,0.85302734375,33.64013671875,-1.9390869140625,1.8896484375
2021-09-24 22:41:27.447071,0.0400390625,0.568359375,0.849609375,33.64013671875,-1.93359375,1.8896484375
2021-09-24 22:41:27.447165,0.04052734375,0.56689453125,0.849609375,33.64013671875,-1.9281005859375,1.8896484375
2021-09-24 22:41:27.447255,0.03955078125,0.5693359375,0.84814453125,33.64013671875,-1.9281005859375,1.8896484375
2021-09-24 22:41:27.447345,0.04052734375,0.5693359375,0.84521484375,33.6456298828125,-1.93359375,1.8896484375
2021-09-24 22:41:27.447455,0.03662109375,0.56494140625,0.8505859375,33.6456298828125,-1.9390869140625,1.8896484375
2021-09-24 22:41:27.447598,0.03515625,0.564453125,0.85009765625,33.6456298828125,-1.9500732421875,1.8896484375
2021-09-24 22:41:27.447734,0.03271484375,0.5634765625,0.85107421875,33.6456298828125,-1.95556640625,1.8896484375
2021-09-24 22:41:27.447869,0.03173828125,0.5625,0.85205078125,33.64013671875,-1.95556640625,1.8896484375
2021-09-24 22:41:27.448003,0.03466796875,0.5654296875,0.8525390625,33.64013671875,-1.95556640625,1.8896484375
2021-09-24 22:41:27.448135,0.03515625,0.56689453125,0.8505859375,33.64013671875,-1.9500732421875,1.8896484375
2021-09-24 22:41:27.448269,0.0361328125,0.5673828125,0.85205078125,33.64013671875,-1.944580078125,1.8896484375
2021-09-24 22:41:27.448420,0.03857421875,0.56640625,0.84619140625,33.6456298828125,-1.944580078125,1.8896484375
2021-09-24 22:41:27.448562,0.0361328125,0.56787109375,0.8515625,33.6456298828125,-1.944580078125,1.8896484375
2021-09-24 22:41:27.448704,0.03564453125,0.5654296875,0.84912109375,33.6456298828125,-1.9500732421875,1.8896484375
2021-09-24 22:41:27.448850,0.03466796875,0.56494140625,0.85107421875,33.6456298828125,-1.9500732421875,1.8896484375
2021-09-24 22:41:27.449001,0.03173828125,0.5654296875,0.8505859375,33.6456298828125,-1.95556640625,1.8896484375
2021-09-24 22:41:27.449147,0.0322265625,0.56494140625,0.84912109375,33.6456298828125,-1.95556640625,1.8896484375
2021-09-24 22:41:27.449306,0.0322265625,0.56640625,0.849609375,33.6456298828125,-1.95556640625,1.8896484375
2021-09-24 22:41:27.449451,0.03369140625,0.56689453125,0.85302734375,33.6456298828125,-1.95556640625,1.8896484375
2021-09-24 22:41:27.449592,0.03369140625,0.56591796875,0.85009765625,33.6456298828125,-1.9500732421875,1.8896484375
2021-09-24 22:41:27.449738,0.0341796875,0.5634765625,0.85693359375,33.6456298828125,-1.9500732421875,1.8896484375
2021-09-24 22:41:27.449883,0.033203125,0.5615234375,0.853515625,33.6456298828125,-1.95556640625,1.8896484375
2021-09-24 22:41:27.450026,0.03466796875,0.56103515625,0.8544921875,33.64013671875,-1.95556640625,1.8896484375
2021-09-24 22:41:27.450167,0.03369140625,0.564453125,0.8505859375,33.64013671875,-1.9500732421875,1.8896484375
2021-09-24 22:41:27.450312,0.03515625,0.56884765625,0.8505859375,33.6346435546875,-1.9500732421875,1.8896484375
2021-09-24 22:41:27.450465,0.03564453125,0.5712890625,0.8466796875,33.629150390625,-1.944580078125,1.8896484375
2021-09-24 22:41:27.450611,0.03662109375,0.572265625,0.8486328125,33.629150390625,-1.9390869140625,1.8896484375
2021-09-24 22:41:27.450757,0.03857421875,0.5732421875,0.849609375,33.629150390625,-1.93359375,1.8896484375
2021-09-24 22:41:27.450899,0.03857421875,0.5732421875,0.84814453125,33.6346435546875,-1.9281005859375,1.8896484375
2021-09-24 22:41:27.451042,0.04052734375,0.56787109375,0.8505859375,33.64013671875,-1.93359375,1.8896484375
2021-09-24 22:41:27.451180,0.0390625,0.564453125,0.8505859375,33.6456298828125,-1.9390869140625,1.8896484375
2021-09-24 22:41:27.451322,0.03759765625,0.55908203125,0.8505859375,33.6456298828125,-1.9500732421875,1.8896484375
2021-09-24 22:41:27.451469,0.03466796875,0.5615234375,0.8505859375,33.6456298828125,-1.9610595703125,1.8896484375
2021-09-24 22:41:27.451612,0.03125,0.5625,0.853515625,33.6346435546875,-1.9610595703125,1.8896484375
2021-09-24 22:41:27.451757,0.03076171875,0.56689453125,0.8515625,33.6346435546875,-1.9610595703125,1.8896484375
2021-09-24 22:41:27.451915,0.029296875,0.5693359375,0.8525390625,33.629150390625,-1.9610595703125,1.8896484375
2021-09-24 22:41:27.452056,0.029296875,0.56640625,0.8505859375,33.6346435546875,-1.9610595703125,1.8896484375
2021-09-24 22:41:27.452195,0.03173828125,0.5625,0.85009765625,33.6346435546875,-1.95556640625,1.8896484375
2021-09-24 22:41:27.452336,0.03662109375,0.5625,0.85009765625,33.6346435546875,-1.9500732421875,1.8896484375
2021-09-24 22:41:27.452481,0.0400390625,0.56640625,0.8505859375,33.6346435546875,-1.944580078125,1.8896484375
2021-09-24 22:41:27.452622,0.04150390625,0.56884765625,0.85107421875,33.629150390625,-1.9390869140625,1.8896484375
2021-09-24 22:41:27.452761,0.0390625,0.57177734375,0.849609375,33.6346435546875,-1.9390869140625,1.8896484375
2021-09-24 22:41:27.452901,0.03759765625,0.56787109375,0.8515625,33.6346435546875,-1.944580078125,1.8896484375
2021-09-24 22:41:27.453051,0.03564453125,0.5634765625,0.85107421875,33.64013671875,-1.95556640625,1.8896484375
2021-09-24 22:41:27.453181,0.03173828125,0.56103515625,0.84814453125,33.64013671875,-1.966552734375,1.8896484375
2021-09-24 22:41:27.453328,0.02880859375,0.56103515625,0.85302734375,33.64013671875,-1.966552734375,1.8896484375
2021-09-24 22:41:27.453462,0.02880859375,0.564453125,0.849609375,33.6346435546875,-1.966552734375,1.8896484375
2021-09-24 22:41:27.453599,0.03125,0.5673828125,0.85205078125,33.629150390625,-1.9610595703125,1.8896484375
2021-09-24 22:41:27.453723,0.0322265625,0.56494140625,0.8505859375,33.629150390625,-1.95556640625,1.8896484375
2021-09-24 22:41:27.453853,0.0341796875,0.5625,0.849609375,33.629150390625,-1.944580078125,1.8896484375
2021-09-24 22:41:27.453976,0.03955078125,0.5634765625,0.849609375,33.629150390625,-1.9390869140625,1.8896484375
2021-09-24 22:41:27.454080,0.03955078125,0.56591796875,0.84912109375,33.629150390625,-1.9390869140625,1.8896484375
2021-09-24 22:41:27.454208,0.0419921875,0.56787109375,0.84912109375,33.6236572265625,-1.93359375,1.8896484375
2021-09-24 22:41:27.454315,0.041015625,0.572265625,0.85009765625,33.6236572265625,-1.93359375,1.8896484375
2021-09-24 22:41:27.454428,0.0361328125,0.57080078125,0.845703125,33.6236572265625,-1.9390869140625,1.8896484375
2021-09-24 22:41:27.454539,0.03662109375,0.56884765625,0.8505859375,33.629150390625,-1.944580078125,1.8896484375
2021-09-24 22:41:27.454657,0.03271484375,0.56591796875,0.8525390625,33.629150390625,-1.9500732421875,1.8896484375
2021-09-24 22:41:27.454786,0.03173828125,0.5634765625,0.85302734375,33.6346435546875,-1.95556640625,1.8896484375
2021-09-24 22:41:27.454928,0.03173828125,0.56396484375,0.8515625,33.6346435546875,-1.95556640625,1.8896484375
2021-09-24 22:41:27.455048,0.0322265625,0.5634765625,0.8505859375,33.6346435546875,-1.9500732421875,1.8896484375
2021-09-24 22:41:27.455165,0.0341796875,0.56591796875,0.85107421875,33.6346435546875,-1.9500732421875,1.8896484375
2021-09-24 22:41:27.455260,0.0341796875,0.564453125,0.8505859375,33.6346435546875,-1.9500732421875,1.8896484375
2021-09-24 22:41:27.455343,0.0341796875,0.56640625,0.84912109375,33.6346435546875,-1.9500732421875,1.8896484375
2021-09-24 22:41:27.455428,0.03515625,0.5673828125,0.85205078125,33.6346435546875,-1.9500732421875,1.8896484375
2021-09-24 22:41:27.455510,0.037109375,0.5693359375,0.85009765625,33.6346435546875,-1.944580078125,1.8896484375
2021-09-24 22:41:27.455593,0.03515625,0.5712890625,0.8525390625,33.6346435546875,-1.944580078125,1.8896484375
2021-09-24 22:41:27.455677,0.03662109375,0.56884765625,0.8505859375,33.6346435546875,-1.944580078125,1.8896484375
2021-09-24 22:41:27.455758,0.03759765625,0.56689453125,0.849609375,33.6346435546875,-1.944580078125,1.8896484375
2021-09-24 22:41:27.455857,0.03662109375,0.56494140625,0.849609375,33.64013671875,-1.944580078125,1.8896484375
2021-09-24 22:41:27.455986,0.03564453125,0.56591796875,0.85302734375,33.64013671875,-1.9500732421875,1.8896484375
2021-09-24 22:41:27.456119,0.03369140625,0.5654296875,0.85205078125,33.6346435546875,-1.9500732421875,1.8896484375
2021-09-24 22:41:27.456247,0.03369140625,0.5654296875,0.853515625,33.6346435546875,-1.9500732421875,1.8896484375
2021-09-24 22:41:27.456369,0.033203125,0.56591796875,0.85595703125,33.6346435546875,-1.9500732421875,1.8896484375
2021-09-24 22:41:27.456476,0.0302734375,0.56298828125,0.853515625,33.6346435546875,-1.95556640625,1.8896484375
2021-09-24 22:41:27.456608,0.03173828125,0.56201171875,0.853515625,33.6346435546875,-1.95556640625,1.8896484375
2021-09-24 22:41:27.456735,0.03125,0.5595703125,0.84912109375,33.629150390625,-1.9500732421875,1.8896484375
2021-09-24 22:41:27.456864,0.03271484375,0.56494140625,0.8515625,33.6236572265625,-1.944580078125,1.8896484375
2021-09-24 22:41:27.456985,0.0361328125,0.568359375,0.85107421875,33.6236572265625,-1.93359375,1.8896484375
2021-09-24 22:41:27.457117,0.03759765625,0.57080078125,0.8505859375,33.6181640625,-1.9281005859375,1.8896484375
2021-09-24 22:41:27.457254,0.0400390625,0.57177734375,0.8525390625,33.6236572265625,-1.9281005859375,1.8896484375
2021-09-24 22:41:27.457415,0.03857421875,0.56787109375,0.8525390625,33.6236572265625,-1.93359375,1.8896484375
2021-09-24 22:41:27.457550,0.03515625,0.56494140625,0.85400390625,33.629150390625,-1.9390869140625,1.8896484375
2021-09-24 22:41:27.457669,0.0341796875,0.56494140625,0.853515625,33.629150390625,-1.944580078125,1.8896484375
2021-09-24 22:41:27.457800,0.03369140625,0.564453125,0.85009765625,33.629150390625,-1.9500732421875,1.8896484375
2021-09-24 22:41:27.457936,0.03271484375,0.56640625,0.84912109375,33.629150390625,-1.9500732421875,1.8896484375
2021-09-24 22:41:27.458040,0.03173828125,0.568359375,0.84912109375,33.629150390625,-1.944580078125,1.8896484375
2021-09-24 22:41:27.458156,0.03369140625,0.56591796875,0.84814453125,33.629150390625,-1.944580078125,1.8896484375
2021-09-24 22:41:27.458281,0.03466796875,0.56689453125,0.84814453125,33.629150390625,-1.944580078125,1.8896484375
2021-09-24 22:41:27.458397,0.037109375,0.56494140625,0.8486328125,33.6346435546875,-1.9390869140625,1.8896484375
2021-09-24 22:41:27.458525,0.03857421875,0.5703125,0.85009765625,33.629150390625,-1.93359375,1.8896484375
2021-09-24 22:41:27.458664,0.04248046875,0.5712890625,0.85009765625,33.629150390625,-1.93359375,1.8896484375
2021-09-24 22:41:27.458795,0.03955078125,0.5703125,0.85009765625,33.6346435546875,-1.9390869140625,1.8896484375
2021-09-24 22:41:27.458922,0.03759765625,0.56689453125,0.85400390625,33.6346435546875,-1.944580078125,1.8896484375
2021-09-24 22:41:27.459059,0.03076171875,0.56103515625,0.85302734375,33.64013671875,-1.95556640625,1.8896484375
2021-09-24 22:41:27.459186,0.03076171875,0.55712890625,0.85302734375,33.64013671875,-1.966552734375,1.8896484375
2021-09-24 22:41:27.459322,0.03076171875,0.55712890625,0.85107421875,33.6346435546875,-1.966552734375,1.8896484375
2021-09-24 22:41:27.459456,0.03173828125,0.56298828125,0.85107421875,33.629150390625,-1.9610595703125,1.8896484375
2021-09-24 22:41:27.459592,0.0361328125,0.57177734375,0.84912109375,33.6236572265625,-1.9500732421875,1.8896484375
2021-09-24 22:41:27.459726,0.03759765625,0.57470703125,0.84521484375,33.6236572265625,-1.944580078125,1.8896484375
2021-09-24 22:41:27.459865,0.03857421875,0.5712890625,0.85009765625,33.629150390625,-1.9390869140625,1.8896484375
2021-09-24 22:41:27.459997,0.04052734375,0.56494140625,0.85009765625,33.629150390625,-1.9390869140625,1.8896484375
2021-09-24 22:41:27.460133,0.0400390625,0.564453125,0.85009765625,33.6346435546875,-1.944580078125,1.8896484375
2021-09-24 22:41:27.460260,0.03759765625,0.5625,0.8544921875,33.629150390625,-1.944580078125,1.8896484375
2021-09-24 22:41:27.460387,0.0361328125,0.5625,0.8515625,33.629150390625,-1.9500732421875,1.8896484375
2021-09-24 22:41:27.460512,0.033203125,0.5625,0.8515625,33.629150390625,-1.95556640625,1.8896484375
2021-09-24 22:41:27.460638,0.03173828125,0.56298828125,0.85205078125,33.6236572265625,-1.9610595703125,1.8896484375
2021-09-24 22:41:27.460762,0.02978515625,0.56396484375,0.8505859375,33.6236572265625,-1.966552734375,1.8896484375
2021-09-24 22:41:27.460886,0.03125,0.5673828125,0.849609375,33.6236572265625,-1.95556640625,1.8896484375
2021-09-24 22:41:27.461010,0.03369140625,0.5712890625,0.845703125,33.6181640625,-1.944580078125,1.8896484375
2021-09-24 22:41:27.461135,0.0380859375,0.57373046875,0.8466796875,33.6236572265625,-1.93359375,1.8896484375
2021-09-24 22:41:27.461274,0.04052734375,0.57177734375,0.849609375,33.6236572265625,-1.9281005859375,1.8896484375
2021-09-24 22:41:27.461398,0.041015625,0.56689453125,0.84765625,33.6346435546875,-1.93359375,1.8896484375
2021-09-24 22:41:27.461521,0.03857421875,0.56201171875,0.84912109375,33.64013671875,-1.944580078125,1.8896484375
2021-09-24 22:41:27.461646,0.03564453125,0.55859375,0.85107421875,33.64013671875,-1.95556640625,1.8896484375
2021-09-24 22:41:27.461776,0.03125,0.55810546875,0.8544921875,33.6346435546875,-1.966552734375,1.8896484375
2021-09-24 22:41:27.461904,0.029296875,0.56298828125,0.85400390625,33.629150390625,-1.9720458984375,1.8896484375
2021-09-24 22:41:27.462041,0.02783203125,0.56396484375,0.85400390625,33.6236572265625,-1.9720458984375,1.8896484375
2021-09-24 22:41:27.462159,0.0283203125,0.56591796875,0.8505859375,33.6236572265625,-1.966552734375,1.8896484375
2021-09-24 22:41:27.462287,0.033203125,0.5693359375,0.84814453125,33.6236572265625,-1.9610595703125,1.8896484375
2021-09-24 22:41:27.462415,0.0361328125,0.56787109375,0.84716796875,33.6236572265625,-1.9500732421875,1.8896484375
2021-09-24 22:41:27.462546,0.03857421875,0.5703125,0.845703125,33.629150390625,-1.9390869140625,1.8896484375
2021-09-24 22:41:27.462676,0.04345703125,0.56884765625,0.84765625,33.629150390625,-1.9281005859375,1.8896484375
2021-09-24 22:41:27.462816,0.046875,0.5673828125,0.84765625,33.6346435546875,-1.9281005859375,1.8896484375
2021-09-24 22:41:27.462958,0.0439453125,0.56591796875,0.85009765625,33.6346435546875,-1.93359375,1.8896484375
2021-09-24 22:41:27.463084,0.04052734375,0.564453125,0.8486328125,33.6346435546875,-1.944580078125,1.8896484375
2021-09-24 22:41:27.463214,0.03271484375,0.5615234375,0.85302734375,33.6346435546875,-1.9610595703125,1.8896484375
2021-09-24 22:41:27.463344,0.0283203125,0.56005859375,0.853515625,33.6346435546875,-1.9720458984375,1.8896484375
2021-09-24 22:41:27.463485,0.02587890625,0.5615234375,0.85205078125,33.629150390625,-1.9775390625,1.8896484375
2021-09-24 22:41:27.463628,0.02587890625,0.564453125,0.8515625,33.629150390625,-1.9720458984375,1.8896484375
2021-09-24 22:41:27.463752,0.02783203125,0.56591796875,0.85009765625,33.629150390625,-1.966552734375,1.8896484375
2021-09-24 22:41:27.463874,0.0341796875,0.56640625,0.85205078125,33.629150390625,-1.9500732421875,1.8896484375
2021-09-24 22:41:27.464024,0.04150390625,0.56396484375,0.8486328125,33.629150390625,-1.93359375,1.8896484375
2021-09-24 22:41:27.464150,0.0458984375,0.5634765625,0.84765625,33.629150390625,-1.922607421875,1.8896484375
2021-09-24 22:41:27.464279,0.0498046875,0.56689453125,0.8505859375,33.629150390625,-1.9171142578125,1.8896484375
2021-09-24 22:41:27.464428,0.0458984375,0.57373046875,0.84716796875,33.6236572265625,-1.922607421875,1.8731689453125
2021-09-24 22:41:27.464564,0.037109375,0.5771484375,0.84765625,33.6236572265625,-1.944580078125,1.845703125
2021-09-24 22:41:27.464706,0.02685546875,0.5703125,0.85205078125,33.629150390625,-1.9720458984375,1.8292236328125
2021-09-24 22:41:27.464860,0.01611328125,0.5615234375,0.8515625,33.6346435546875,-1.9940185546875,1.8182373046875
2021-09-24 22:41:27.465002,0.01416015625,0.55712890625,0.8583984375,33.6346435546875,-1.99951171875,1.8182373046875
2021-09-24 22:41:27.465138,0.021484375,0.55908203125,0.8525390625,33.629150390625,-1.9830322265625,1.82373046875
2021-09-24 22:41:27.465322,0.03125,0.5673828125,0.84765625,33.629150390625,-1.9500732421875,1.8292236328125
2021-09-24 22:41:27.465449,0.03955078125,0.5712890625,0.85107421875,33.6236572265625,-1.922607421875,1.845703125
2021-09-24 22:41:27.465581,0.0458984375,0.57177734375,0.841796875,33.6346435546875,-1.91162109375,1.856689453125
2021-09-24 22:41:27.465710,0.044921875,0.56591796875,0.849609375,33.64013671875,-1.91162109375,1.86767578125
2021-09-24 22:41:27.465836,0.04150390625,0.55908203125,0.85107421875,33.64013671875,-1.9281005859375,1.8731689453125
2021-09-24 22:41:27.465967,0.0390625,0.56396484375,0.84814453125,33.6346435546875,-1.9390869140625,1.856689453125
2021-09-24 22:41:27.466099,0.03466796875,0.57275390625,0.85107421875,33.6236572265625,-1.9500732421875,1.8402099609375
2021-09-24 22:41:27.466214,0.033203125,0.576171875,0.84619140625,33.6236572265625,-1.95556640625,1.82373046875
2021-09-24 22:41:27.466323,0.0283203125,0.5732421875,0.8505859375,33.629150390625,-1.95556640625,1.8182373046875
2021-09-24 22:41:27.466431,0.02685546875,0.560546875,0.8515625,33.64013671875,-1.966552734375,1.8292236328125
2021-09-24 22:41:27.466534,0.0302734375,0.5556640625,0.85107421875,33.64013671875,-1.9610595703125,1.834716796875
2021-09-24 22:41:27.466626,0.03466796875,0.55615234375,0.85205078125,33.64013671875,-1.9500732421875,1.845703125
2021-09-24 22:41:27.466724,0.03955078125,0.5634765625,0.8515625,33.629150390625,-1.93359375,1.845703125
2021-09-24 22:41:27.466832,0.04248046875,0.57275390625,0.85107421875,33.6236572265625,-1.922607421875,1.845703125
2021-09-24 22:41:27.466939,0.0419921875,0.56982421875,0.8525390625,33.629150390625,-1.9171142578125,1.845703125
2021-09-24 22:41:27.467047,0.03857421875,0.56396484375,0.85205078125,33.629150390625,-1.9281005859375,1.8511962890625
2021-09-24 22:41:27.467158,0.037109375,0.55908203125,0.8515625,33.6346435546875,-1.944580078125,1.856689453125
2021-09-24 22:41:27.467278,0.0341796875,0.55810546875,0.8544921875,33.629150390625,-1.9500732421875,1.8511962890625
2021-09-24 22:41:27.467379,0.03369140625,0.5654296875,0.84765625,33.6236572265625,-1.9500732421875,1.8402099609375
2021-09-24 22:41:27.467474,0.03271484375,0.5732421875,0.85107421875,33.6126708984375,-1.9390869140625,1.8292236328125
2021-09-24 22:41:27.467565,0.0341796875,0.5771484375,0.85009765625,33.6181640625,-1.9390869140625,1.82373046875
2021-09-24 22:41:27.467660,0.03271484375,0.5703125,0.84814453125,33.6236572265625,-1.9390869140625,1.82373046875
2021-09-24 22:41:27.467751,0.03271484375,0.56201171875,0.85546875,33.6346435546875,-1.944580078125,1.834716796875
2021-09-24 22:41:27.467878,0.0322265625,0.556640625,0.85107421875,33.64013671875,-1.95556640625,1.8402099609375
2021-09-24 22:41:27.467998,0.03173828125,0.55712890625,0.8583984375,33.6346435546875,-1.95556640625,1.845703125
2021-09-24 22:41:27.468129,0.03466796875,0.560546875,0.849609375,33.629150390625,-1.944580078125,1.845703125
2021-09-24 22:41:27.468255,0.04150390625,0.56005859375,0.849609375,33.6236572265625,-1.93359375,1.856689453125
2021-09-24 22:41:27.468382,0.04443359375,0.5576171875,0.85205078125,33.6236572265625,-1.922607421875,1.8731689453125
2021-09-24 22:41:27.468508,0.04541015625,0.5673828125,0.84912109375,33.6126708984375,-1.922607421875,1.8621826171875
2021-09-24 22:41:27.468632,0.03857421875,0.578125,0.84716796875,33.607177734375,-1.9390869140625,1.8292236328125
2021-09-24 22:41:27.468775,0.02392578125,0.580078125,0.84326171875,33.607177734375,-1.966552734375,1.7962646484375
2021-09-24 22:41:27.468902,0.01220703125,0.57568359375,0.84375,33.6126708984375,-1.988525390625,1.7742919921875
2021-09-24 22:41:27.469028,0.0107421875,0.56689453125,0.8515625,33.6236572265625,-1.9940185546875,1.7742919921875
2021-09-24 22:41:27.469153,0.01953125,0.564453125,0.85009765625,33.6236572265625,-1.9720458984375,1.7962646484375
2021-09-24 22:41:27.469320,0.0361328125,0.5712890625,0.85400390625,33.629150390625,-1.9281005859375,1.8182373046875
2021-09-24 22:41:27.469451,0.05224609375,0.56884765625,0.85546875,33.629150390625,-1.8896484375,1.8511962890625
2021-09-24 22:41:27.469580,0.06005859375,0.56298828125,0.849609375,33.64013671875,-1.878662109375,1.8896484375
2021-09-24 22:41:27.469710,0.06005859375,0.552734375,0.85205078125,33.651123046875,-1.8896484375,1.91162109375
2021-09-24 22:41:27.469839,0.048828125,0.54833984375,0.85400390625,33.6456298828125,-1.922607421875,1.91162109375
2021-09-24 22:41:27.469967,0.037109375,0.55810546875,0.85107421875,33.629150390625,-1.9500732421875,1.86767578125
2021-09-24 22:41:27.470095,0.0263671875,0.576171875,0.8525390625,33.607177734375,-1.9720458984375,1.8182373046875
2021-09-24 22:41:27.470221,0.01708984375,0.58642578125,0.8486328125,33.6016845703125,-1.988525390625,1.7742919921875
2021-09-24 22:41:27.470348,0.0166015625,0.58251953125,0.8486328125,33.607177734375,-1.9830322265625,1.7633056640625
2021-09-24 22:41:27.470473,0.02197265625,0.5673828125,0.849609375,33.6236572265625,-1.9775390625,1.7852783203125
2021-09-24 22:41:27.470604,0.02978515625,0.55322265625,0.8486328125,33.64013671875,-1.9610595703125,1.8292236328125
2021-09-24 22:41:27.470733,0.04150390625,0.5517578125,0.853515625,33.64013671875,-1.9281005859375,1.8621826171875
2021-09-24 22:41:27.470852,0.05078125,0.560546875,0.85302734375,33.6346435546875,-1.9061279296875,1.878662109375
2021-09-24 22:41:27.470942,0.0556640625,0.56982421875,0.85009765625,33.629150390625,-1.8951416015625,1.878662109375
2021-09-24 22:41:27.471030,0.05224609375,0.57275390625,0.85205078125,33.6236572265625,-1.9061279296875,1.86767578125
2021-09-24 22:41:27.471120,0.0400390625,0.5654296875,0.85009765625,33.629150390625,-1.9390869140625,1.8511962890625
2021-09-24 22:41:27.471209,0.02685546875,0.55712890625,0.8505859375,33.629150390625,-1.9775390625,1.8292236328125
2021-09-24 22:41:27.471302,0.017578125,0.55859375,0.85107421875,33.6236572265625,-1.99951171875,1.8072509765625
2021-09-24 22:41:27.471391,0.01513671875,0.56591796875,0.8515625,33.6181640625,-1.99951171875,1.790771484375
2021-09-24 22:41:27.471502,0.0224609375,0.57568359375,0.8515625,33.6126708984375,-1.9720458984375,1.7852783203125
2021-09-24 22:41:27.471612,0.0302734375,0.578125,0.849609375,33.6126708984375,-1.9390869140625,1.7962646484375
2021-09-24 22:41:27.471700,0.04150390625,0.57373046875,0.84814453125,33.6236572265625,-1.922607421875,1.82373046875
2021-09-24 22:41:27.471788,0.04736328125,0.5634765625,0.85009765625,33.6346435546875,-1.91162109375,1.8511962890625
2021-09-24 22:41:27.471887,0.0478515625,0.55517578125,0.8505859375,33.64013671875,-1.922607421875,1.86767578125
2021-09-24 22:41:27.472002,0.04296875,0.55712890625,0.85009765625,33.64013671875,-1.93359375,1.8621826171875
2021-09-24 22:41:27.472094,0.0361328125,0.56494140625,0.8515625,33.629150390625,-1.9500732421875,1.834716796875
2021-09-24 22:41:27.472202,0.02587890625,0.57177734375,0.85009765625,33.6181640625,-1.9610595703125,1.8072509765625
2021-09-24 22:41:27.472308,0.02392578125,0.57177734375,0.8486328125,33.6181640625,-1.9720458984375,1.790771484375
2021-09-24 22:41:27.472418,0.02294921875,0.56591796875,0.8505859375,33.6236572265625,-1.9775390625,1.790771484375
2021-09-24 22:41:27.472525,0.02490234375,0.55859375,0.84716796875,33.629150390625,-1.9720458984375,1.8072509765625
2021-09-24 22:41:27.472611,0.03271484375,0.55712890625,0.85009765625,33.629150390625,-1.95556640625,1.82373046875
2021-09-24 22:41:27.472716,0.041015625,0.56298828125,0.85009765625,33.629150390625,-1.93359375,1.834716796875
2021-09-24 22:41:27.472830,0.0458984375,0.5703125,0.85009765625,33.6236572265625,-1.91162109375,1.845703125
2021-09-24 22:41:27.472929,0.04638671875,0.5732421875,0.849609375,33.6236572265625,-1.9061279296875,1.845703125
2021-09-24 22:41:27.473034,0.0439453125,0.5693359375,0.8505859375,33.6236572265625,-1.9171142578125,1.845703125
2021-09-24 22:41:27.473152,0.03857421875,0.56494140625,0.85205078125,33.629150390625,-1.93359375,1.8402099609375
2021-09-24 22:41:27.473271,0.03271484375,0.56005859375,0.8525390625,33.629150390625,-1.9500732421875,1.8292236328125
2021-09-24 22:41:27.473361,0.029296875,0.5615234375,0.8515625,33.6236572265625,-1.9610595703125,1.8182373046875
2021-09-24 22:41:27.473458,0.03076171875,0.5654296875,0.8515625,33.6181640625,-1.966552734375,1.8072509765625
2021-09-24 22:41:27.473562,0.03271484375,0.56884765625,0.85205078125,33.6181640625,-1.9610595703125,1.8072509765625
2021-09-24 22:41:27.473673,0.03369140625,0.56884765625,0.8515625,33.6181640625,-1.95556640625,1.8072509765625
2021-09-24 22:41:27.473779,0.03564453125,0.56689453125,0.8505859375,33.6236572265625,-1.9500732421875,1.8182373046875
2021-09-24 22:41:27.473884,0.03759765625,0.56396484375,0.8486328125,33.6236572265625,-1.944580078125,1.8292236328125
2021-09-24 22:41:27.473993,0.03857421875,0.56494140625,0.84716796875,33.629150390625,-1.944580078125,1.8292236328125
2021-09-24 22:41:27.474093,0.03857421875,0.5673828125,0.8525390625,33.6236572265625,-1.944580078125,1.82373046875
2021-09-24 22:41:27.474195,0.037109375,0.5712890625,0.8486328125,33.6236572265625,-1.944580078125,1.82373046875
2021-09-24 22:41:27.474294,0.03662109375,0.5703125,0.8505859375,33.629150390625,-1.95556640625,1.8182373046875
2021-09-24 22:41:27.474399,0.03173828125,0.56494140625,0.85107421875,33.629150390625,-1.9610595703125,1.8182373046875
2021-09-24 22:41:27.474484,0.03076171875,0.564453125,0.84912109375,33.629150390625,-1.966552734375,1.812744140625
2021-09-24 22:41:27.474566,0.0302734375,0.56298828125,0.85400390625,33.629150390625,-1.966552734375,1.812744140625
2021-09-24 22:41:27.474649,0.02978515625,0.56494140625,0.8505859375,33.629150390625,-1.9610595703125,1.812744140625
2021-09-24 22:41:27.474754,0.03125,0.56640625,0.8505859375,33.6236572265625,-1.95556640625,1.8072509765625
2021-09-24 22:41:27.474856,0.03369140625,0.56787109375,0.85205078125,33.6236572265625,-1.9500732421875,1.8072509765625
2021-09-24 22:41:27.474956,0.03662109375,0.568359375,0.849609375,33.6236572265625,-1.944580078125,1.812744140625
2021-09-24 22:41:27.475057,0.0380859375,0.56494140625,0.8505859375,33.6236572265625,-1.944580078125,1.8182373046875
2021-09-24 22:41:27.475147,0.03515625,0.5634765625,0.853515625,33.6236572265625,-1.944580078125,1.8182373046875
2021-09-24 22:41:27.475238,0.0361328125,0.564453125,0.85009765625,33.6236572265625,-1.944580078125,1.82373046875
2021-09-24 22:41:27.475330,0.03564453125,0.56591796875,0.8515625,33.6236572265625,-1.944580078125,1.8182373046875
2021-09-24 22:41:27.475427,0.0390625,0.56640625,0.85009765625,33.6236572265625,-1.944580078125,1.8182373046875
2021-09-24 22:41:27.475523,0.03564453125,0.5654296875,0.8515625,33.6181640625,-1.9500732421875,1.8182373046875
2021-09-24 22:41:27.475608,0.0341796875,0.56494140625,0.8525390625,33.6181640625,-1.9500732421875,1.812744140625
2021-09-24 22:41:27.475717,0.03369140625,0.564453125,0.84765625,33.6181640625,-1.9500732421875,1.812744140625
2021-09-24 22:41:27.475816,0.03515625,0.5654296875,0.849609375,33.6181640625,-1.9500732421875,1.812744140625
2021-09-24 22:41:27.475914,0.03662109375,0.56787109375,0.8544921875,33.6181640625,-1.9500732421875,1.812744140625
2021-09-24 22:41:27.476014,0.03564453125,0.568359375,0.8505859375,33.6236572265625,-1.9500732421875,1.8182373046875
2021-09-24 22:41:27.476111,0.037109375,0.564453125,0.85302734375,33.6236572265625,-1.9500732421875,1.8182373046875
2021-09-24 22:41:27.476211,0.03662109375,0.5625,0.849609375,33.6236572265625,-1.9500732421875,1.82373046875
2021-09-24 22:41:27.476314,0.0361328125,0.564453125,0.8515625,33.6236572265625,-1.9500732421875,1.82373046875
2021-09-24 22:41:27.476414,0.03369140625,0.56396484375,0.853515625,33.6181640625,-1.95556640625,1.8182373046875
2021-09-24 22:41:27.476507,0.03369140625,0.56787109375,0.8486328125,33.6181640625,-1.95556640625,1.812744140625
2021-09-24 22:41:27.476610,0.0341796875,0.5703125,0.85009765625,33.6181640625,-1.95556640625,1.8072509765625
2021-09-24 22:41:27.476706,0.03125,0.5703125,0.8525390625,33.6181640625,-1.95556640625,1.8072509765625
2021-09-24 22:41:27.476825,0.03271484375,0.568359375,0.85009765625,33.6236572265625,-1.95556640625,1.8072509765625
2021-09-24 22:41:27.476914,0.0341796875,0.5673828125,0.85107421875,33.6236572265625,-1.9500732421875,1.812744140625
2021-09-24 22:41:27.476997,0.03662109375,0.56494140625,0.85302734375,33.629150390625,-1.9500732421875,1.812744140625
2021-09-24 22:41:27.477079,0.03564453125,0.564453125,0.8515625,33.6236572265625,-1.9500732421875,1.8182373046875
2021-09-24 22:41:27.477167,0.0361328125,0.56640625,0.85302734375,33.6236572265625,-1.9500732421875,1.8182373046875
2021-09-24 22:41:27.477270,0.03515625,0.56640625,0.8515625,33.6236572265625,-1.9500732421875,1.812744140625
2021-09-24 22:41:27.477375,0.0361328125,0.5654296875,0.85009765625,33.6236572265625,-1.9500732421875,1.812744140625
2021-09-24 22:41:27.477469,0.033203125,0.5673828125,0.84912109375,33.629150390625,-1.95556640625,1.812744140625
2021-09-24 22:41:27.477564,0.03369140625,0.568359375,0.85205078125,33.629150390625,-1.95556640625,1.812744140625
2021-09-24 22:41:27.477663,0.03466796875,0.56787109375,0.853515625,33.629150390625,-1.9500732421875,1.812744140625
2021-09-24 22:41:27.477760,0.0361328125,0.56591796875,0.85107421875,33.629150390625,-1.9500732421875,1.812744140625
2021-09-24 22:41:27.477855,0.037109375,0.56494140625,0.85107421875,33.629150390625,-1.944580078125,1.8182373046875
2021-09-24 22:41:27.477968,0.03759765625,0.56640625,0.8525390625,33.629150390625,-1.944580078125,1.82373046875
2021-09-24 22:41:27.478091,0.03759765625,0.5634765625,0.84814453125,33.629150390625,-1.944580078125,1.82373046875
2021-09-24 22:41:27.478193,0.0380859375,0.56396484375,0.853515625,33.6236572265625,-1.944580078125,1.82373046875
2021-09-24 22:41:27.478298,0.0361328125,0.56640625,0.849609375,33.6236572265625,-1.9500732421875,1.8182373046875
2021-09-24 22:41:27.478394,0.03466796875,0.56787109375,0.85400390625,33.6236572265625,-1.9500732421875,1.812744140625
2021-09-24 22:41:27.478503,0.03466796875,0.56787109375,0.85400390625,33.6181640625,-1.95556640625,1.8072509765625
2021-09-24 22:41:27.478638,0.03271484375,0.568359375,0.85302734375,33.6181640625,-1.95556640625,1.8017578125
2021-09-24 22:41:27.478764,0.03125,0.56591796875,0.853515625,33.6181640625,-1.9610595703125,1.8017578125
2021-09-24 22:41:27.478875,0.03173828125,0.56396484375,0.8515625,33.6181640625,-1.95556640625,1.8017578125
2021-09-24 22:41:27.478983,0.0341796875,0.5654296875,0.85009765625,33.6181640625,-1.95556640625,1.8017578125
2021-09-24 22:41:27.479111,0.0361328125,0.56689453125,0.85009765625,33.6181640625,-1.95556640625,1.8072509765625
2021-09-24 22:41:27.479241,0.0380859375,0.56787109375,0.85400390625,33.6181640625,-1.95556640625,1.8072509765625
2021-09-24 22:41:27.479370,0.03564453125,0.56591796875,0.8515625,33.6181640625,-1.95556640625,1.8072509765625
2021-09-24 22:41:27.479509,0.03759765625,0.56591796875,0.85009765625,33.6236572265625,-1.95556640625,1.8072509765625
2021-09-24 22:41:27.479645,0.03466796875,0.56396484375,0.85107421875,33.6236572265625,-1.9610595703125,1.8072509765625
2021-09-24 22:41:27.479774,0.03173828125,0.5634765625,0.85302734375,33.6181640625,-1.9610595703125,1.8072509765625
2021-09-24 22:41:27.479901,0.03271484375,0.56396484375,0.8515625,33.6181640625,-1.9610595703125,1.8017578125
2021-09-24 22:41:27.480033,0.03271484375,0.5654296875,0.85302734375,33.6181640625,-1.9610595703125,1.8017578125
2021-09-24 22:41:27.480175,0.03369140625,0.56689453125,0.8525390625,33.6126708984375,-1.95556640625,1.8017578125
2021-09-24 22:41:27.480317,0.0341796875,0.568359375,0.84814453125,33.6126708984375,-1.9500732421875,1.8017578125
2021-09-24 22:41:27.480441,0.0361328125,0.56787109375,0.8486328125,33.6181640625,-1.944580078125,1.8072509765625
2021-09-24 22:41:27.480567,0.03759765625,0.56689453125,0.85009765625,33.6181640625,-1.944580078125,1.8072509765625
2021-09-24 22:41:27.480693,0.03564453125,0.5654296875,0.85302734375,33.6181640625,-1.9390869140625,1.8072509765625
2021-09-24 22:41:27.480818,0.03662109375,0.56640625,0.85009765625,33.6181640625,-1.944580078125,1.8072509765625
2021-09-24 22:41:27.480947,0.0380859375,0.5634765625,0.8486328125,33.6181640625,-1.944580078125,1.8072509765625
2021-09-24 22:41:27.481075,0.03759765625,0.5634765625,0.84814453125,33.6181640625,-1.9500732421875,1.8072509765625
2021-09-24 22:41:27.481201,0.03466796875,0.56396484375,0.84814453125,33.6181640625,-1.95556640625,1.8017578125
2021-09-24 22:41:27.481400,0.03369140625,0.5654296875,0.849609375,33.6181640625,-1.95556640625,1.8017578125
2021-09-24 22:41:27.481543,0.0341796875,0.5673828125,0.8515625,33.6181640625,-1.95556640625,1.8017578125
2021-09-24 22:41:27.481672,0.0322265625,0.56787109375,0.849609375,33.6181640625,-1.9500732421875,1.8017578125
2021-09-24 22:41:27.481798,0.0341796875,0.5654296875,0.85205078125,33.6181640625,-1.9500732421875,1.8017578125
2021-09-24 22:41:27.481927,0.0361328125,0.5625,0.8525390625,33.6181640625,-1.95556640625,1.8017578125
2021-09-24 22:41:27.482054,0.03515625,0.56494140625,0.8544921875,33.6126708984375,-1.95556640625,1.8017578125
2021-09-24 22:41:27.482182,0.03515625,0.5654296875,0.84765625,33.6181640625,-1.95556640625,1.8017578125
2021-09-24 22:41:27.482312,0.03369140625,0.56640625,0.85107421875,33.6181640625,-1.9500732421875,1.8017578125
2021-09-24 22:41:27.482445,0.0341796875,0.5673828125,0.84765625,33.6181640625,-1.9500732421875,1.7962646484375
2021-09-24 22:41:27.482554,0.03515625,0.56591796875,0.849609375,33.6181640625,-1.9500732421875,1.7962646484375
2021-09-24 22:41:27.482647,0.0341796875,0.56640625,0.8486328125,33.6181640625,-1.9500732421875,1.7962646484375
2021-09-24 22:41:27.482741,0.03515625,0.564453125,0.8525390625,33.6181640625,-1.9500732421875,1.7962646484375
2021-09-24 22:41:27.482831,0.033203125,0.5634765625,0.8525390625,33.6181640625,-1.95556640625,1.7962646484375
2021-09-24 22:41:27.482924,0.03466796875,0.56494140625,0.849609375,33.6181640625,-1.95556640625,1.7962646484375
2021-09-24 22:41:27.483017,0.033203125,0.5654296875,0.85498046875,33.6181640625,-1.95556640625,1.7962646484375
2021-09-24 22:41:27.483125,0.0341796875,0.56591796875,0.8505859375,33.6181640625,-1.95556640625,1.7962646484375
2021-09-24 22:41:27.483253,0.03466796875,0.56787109375,0.85009765625,33.6181640625,-1.9500732421875,1.790771484375
2021-09-24 22:41:27.483388,0.03564453125,0.56591796875,0.8486328125,33.6236572265625,-1.9500732421875,1.7962646484375
2021-09-24 22:41:27.483518,0.03564453125,0.56689453125,0.8515625,33.6236572265625,-1.9500732421875,1.7962646484375
2021-09-24 22:41:27.483643,0.0361328125,0.5673828125,0.8486328125,33.6236572265625,-1.944580078125,1.7962646484375
2021-09-24 22:41:27.483766,0.03564453125,0.56689453125,0.85107421875,33.6236572265625,-1.944580078125,1.7962646484375
2021-09-24 22:41:27.483890,0.0380859375,0.56640625,0.84912109375,33.6236572265625,-1.944580078125,1.7962646484375
2021-09-24 22:41:27.484013,0.037109375,0.5673828125,0.85107421875,33.6236572265625,-1.9500732421875,1.7962646484375
2021-09-24 22:41:27.484135,0.0361328125,0.564453125,0.85107421875,33.6236572265625,-1.9500732421875,1.7962646484375
2021-09-24 22:41:27.484265,0.03369140625,0.56298828125,0.84912109375,33.6236572265625,-1.95556640625,1.7962646484375
2021-09-24 22:41:27.484402,0.0341796875,0.56494140625,0.8515625,33.6236572265625,-1.9500732421875,1.7962646484375
2021-09-24 22:41:27.484532,0.0341796875,0.564453125,0.849609375,33.6236572265625,-1.9500732421875,1.7962646484375
2021-09-24 22:41:27.484661,0.0341796875,0.56640625,0.8525390625,33.6236572265625,-1.9500732421875,1.7962646484375
2021-09-24 22:41:27.484793,0.0361328125,0.568359375,0.85205078125,33.6236572265625,-1.9500732421875,1.7962646484375
2021-09-24 22:41:27.484945,0.03369140625,0.56689453125,0.849609375,33.6236572265625,-1.9500732421875,1.7962646484375
2021-09-24 22:41:27.485075,0.0361328125,0.56689453125,0.8544921875,33.6236572265625,-1.9500732421875,1.7962646484375
2021-09-24 22:41:27.485199,0.037109375,0.56689453125,0.85205078125,33.6236572265625,-1.9500732421875,1.7962646484375
2021-09-24 22:41:27.485325,0.03466796875,0.56591796875,0.85107421875,33.6236572265625,-1.9500732421875,1.7962646484375
2021-09-24 22:41:27.485453,0.03515625,0.56689453125,0.8515625,33.6236572265625,-1.9500732421875,1.7962646484375
2021-09-24 22:41:27.485590,0.0361328125,0.5673828125,0.849609375,33.6236572265625,-1.95556640625,1.7962646484375
2021-09-24 22:41:27.485712,0.03271484375,0.5673828125,0.8544921875,33.6236572265625,-1.95556640625,1.7962646484375
2021-09-24 22:41:27.485836,0.03271484375,0.5654296875,0.85400390625,33.6236572265625,-1.95556640625,1.7962646484375
2021-09-24 22:41:27.485959,0.033203125,0.56494140625,0.85546875,33.6236572265625,-1.95556640625,1.7962646484375
2021-09-24 22:41:27.486084,0.033203125,0.564453125,0.8564453125,33.6181640625,-1.95556640625,1.7962646484375
2021-09-24 22:41:27.486208,0.03173828125,0.56591796875,0.85400390625,33.6181640625,-1.9500732421875,1.7962646484375
2021-09-24 22:41:27.486331,0.03369140625,0.568359375,0.85009765625,33.6181640625,-1.9500732421875,1.7962646484375
2021-09-24 22:41:27.486453,0.03564453125,0.56640625,0.8525390625,33.6181640625,-1.944580078125,1.7962646484375
2021-09-24 22:41:27.486574,0.03662109375,0.56787109375,0.85009765625,33.6181640625,-1.944580078125,1.7962646484375
2021-09-24 22:41:27.486695,0.03857421875,0.56787109375,0.8525390625,33.6181640625,-1.9390869140625,1.7962646484375
2021-09-24 22:41:27.486820,0.03759765625,0.56591796875,0.8525390625,33.6236572265625,-1.944580078125,1.7962646484375
2021-09-24 22:41:27.486941,0.03759765625,0.5654296875,0.85302734375,33.6236572265625,-1.9500732421875,1.7962646484375
2021-09-24 22:41:27.487065,0.03662109375,0.5654296875,0.8525390625,33.6181640625,-1.9500732421875,1.7962646484375
2021-09-24 22:41:27.487187,0.03662109375,0.56494140625,0.85107421875,33.6181640625,-1.95556640625,1.7962646484375
2021-09-24 22:41:27.487315,0.03369140625,0.56689453125,0.8505859375,33.6181640625,-1.95556640625,1.7962646484375
2021-09-24 22:41:27.487436,0.03466796875,0.56640625,0.8515625,33.6236572265625,-1.95556640625,1.7962646484375
2021-09-24 22:41:27.487557,0.03466796875,0.56640625,0.84765625,33.6236572265625,-1.95556640625,1.7962646484375
2021-09-24 22:41:27.487679,0.03466796875,0.5654296875,0.8505859375,33.6236572265625,-1.95556640625,1.7962646484375
2021-09-24 22:41:27.487798,0.03564453125,0.5654296875,0.85107421875,33.6236572265625,-1.95556640625,1.7962646484375
2021-09-24 22:41:27.487929,0.03662109375,0.56591796875,0.85009765625,33.6236572265625,-1.95556640625,1.7962646484375
2021-09-24 22:41:27.488048,0.03564453125,0.56591796875,0.85205078125,33.6236572265625,-1.95556640625,1.7962646484375
2021-09-24 22:41:27.488175,0.03515625,0.56591796875,0.8486328125,33.6236572265625,-1.95556640625,1.7962646484375
2021-09-24 22:41:27.488303,0.03515625,0.5673828125,0.8505859375,33.6236572265625,-1.9500732421875,1.7962646484375
2021-09-24 22:41:27.488441,0.03466796875,0.56689453125,0.8525390625,33.6236572265625,-1.95556640625,1.7962646484375
2021-09-24 22:41:27.488568,0.0341796875,0.56494140625,0.85107421875,33.6236572265625,-1.95556640625,1.7962646484375
2021-09-24 22:41:27.488692,0.0341796875,0.56396484375,0.8525390625,33.6236572265625,-1.95556640625,1.7962646484375
2021-09-24 22:41:27.488811,0.033203125,0.5634765625,0.8515625,33.6181640625,-1.95556640625,1.7962646484375
2021-09-24 22:41:27.488934,0.03466796875,0.56494140625,0.849609375,33.6181640625,-1.95556640625,1.7962646484375
2021-09-24 22:41:27.489053,0.0361328125,0.56591796875,0.84716796875,33.6236572265625,-1.9500732421875,1.7962646484375
2021-09-24 22:41:27.489185,0.03369140625,0.564453125,0.85107421875,33.6181640625,-1.9500732421875,1.7962646484375
2021-09-24 22:41:27.489342,0.03564453125,0.56591796875,0.8486328125,33.6236572265625,-1.944580078125,1.7962646484375
2021-09-24 22:41:27.489482,0.03515625,0.5673828125,0.8505859375,33.6236572265625,-1.9500732421875,1.7962646484375
2021-09-24 22:41:27.489613,0.037109375,0.5673828125,0.85107421875,33.6236572265625,-1.9500732421875,1.7962646484375
2021-09-24 22:41:27.489746,0.033203125,0.56884765625,0.8505859375,33.6236572265625,-1.9500732421875,1.7962646484375
2021-09-24 22:41:27.489882,0.03662109375,0.5654296875,0.85107421875,33.6236572265625,-1.9500732421875,1.7962646484375
2021-09-24 22:41:27.490024,0.03466796875,0.56689453125,0.8515625,33.6236572265625,-1.9500732421875,1.7962646484375
2021-09-24 22:41:27.490167,0.03564453125,0.56396484375,0.85205078125,33.6236572265625,-1.9500732421875,1.7962646484375
2021-09-24 22:41:27.490291,0.03515625,0.56640625,0.85107421875,33.6236572265625,-1.9500732421875,1.7962646484375
2021-09-24 22:41:27.490421,0.0341796875,0.5654296875,0.8486328125,33.6236572265625,-1.9500732421875,1.7962646484375
2021-09-24 22:41:27.490546,0.03369140625,0.56884765625,0.85302734375,33.6236572265625,-1.9500732421875,1.7962646484375
2021-09-24 22:41:27.490668,0.0341796875,0.56689453125,0.85205078125,33.6236572265625,-1.9500732421875,1.7962646484375
2021-09-24 22:41:27.490792,0.03369140625,0.56640625,0.8486328125,33.6236572265625,-1.9500732421875,1.7962646484375
2021-09-24 22:41:27.490924,0.0322265625,0.56396484375,0.8505859375,33.6236572265625,-1.944580078125,1.7962646484375
2021-09-24 22:41:27.491045,0.0322265625,0.56396484375,0.849609375,33.6236572265625,-1.944580078125,1.7962646484375
2021-09-24 22:41:27.491168,0.03564453125,0.56591796875,0.84912109375,33.6236572265625,-1.944580078125,1.7962646484375
2021-09-24 22:41:27.491290,0.0361328125,0.56787109375,0.85302734375,33.6236572265625,-1.944580078125,1.7962646484375
2021-09-24 22:41:27.491413,0.03662109375,0.5673828125,0.85009765625,33.6236572265625,-1.944580078125,1.7962646484375
2021-09-24 22:41:27.491536,0.033203125,0.56787109375,0.84814453125,33.629150390625,-1.944580078125,1.7962646484375
2021-09-24 22:41:27.491656,0.033203125,0.56640625,0.84912109375,33.629150390625,-1.944580078125,1.7962646484375
2021-09-24 22:41:27.491778,0.033203125,0.5654296875,0.84912109375,33.629150390625,-1.944580078125,1.7962646484375
2021-09-24 22:41:27.491907,0.03369140625,0.5654296875,0.85302734375,33.629150390625,-1.944580078125,1.7962646484375
2021-09-24 22:41:27.492045,0.0361328125,0.56494140625,0.85107421875,33.629150390625,-1.944580078125,1.7962646484375
2021-09-24 22:41:27.492188,0.03466796875,0.5654296875,0.8486328125,33.629150390625,-1.944580078125,1.7962646484375
2021-09-24 22:41:27.492313,0.033203125,0.56494140625,0.85009765625,33.629150390625,-1.944580078125,1.7962646484375
2021-09-24 22:41:27.492452,0.0341796875,0.56494140625,0.8486328125,33.629150390625,-1.944580078125,1.7962646484375
2021-09-24 22:41:27.492577,0.03466796875,0.56591796875,0.85205078125,33.629150390625,-1.944580078125,1.7962646484375
2021-09-24 22:41:27.492702,0.03369140625,0.5654296875,0.85107421875,33.629150390625,-1.944580078125,1.7962646484375
2021-09-24 22:41:27.492824,0.0341796875,0.56591796875,0.85009765625,33.629150390625,-1.9390869140625,1.7962646484375
2021-09-24 22:41:27.492949,0.0361328125,0.56591796875,0.85498046875,33.6236572265625,-1.9390869140625,1.7962646484375
2021-09-24 22:41:27.493073,0.033203125,0.5654296875,0.8525390625,33.6236572265625,-1.9390869140625,1.7962646484375
2021-09-24 22:41:27.493197,0.0361328125,0.56689453125,0.8515625,33.6236572265625,-1.9390869140625,1.7962646484375
2021-09-24 22:41:27.493345,0.03466796875,0.56494140625,0.85205078125,33.6236572265625,-1.9390869140625,1.7962646484375
2021-09-24 22:41:27.493462,0.03564453125,0.5654296875,0.84912109375,33.6236572265625,-1.9390869140625,1.7962646484375
2021-09-24 22:41:27.493556,0.03369140625,0.56640625,0.85107421875,33.6236572265625,-1.9390869140625,1.7962646484375
2021-09-24 22:41:27.493646,0.033203125,0.56640625,0.8505859375,33.6236572265625,-1.944580078125,1.7962646484375
2021-09-24 22:41:27.493742,0.03515625,0.5654296875,0.853515625,33.6236572265625,-1.944580078125,1.7962646484375
2021-09-24 22:41:27.493833,0.0361328125,0.5634765625,0.85107421875,33.6236572265625,-1.944580078125,1.7962646484375
2021-09-24 22:41:27.493922,0.03564453125,0.56298828125,0.84814453125,33.6236572265625,-1.944580078125,1.7962646484375
2021-09-24 22:41:27.494011,0.03564453125,0.56494140625,0.8505859375,33.6236572265625,-1.944580078125,1.7962646484375
2021-09-24 22:41:27.494098,0.03369140625,0.5654296875,0.84912109375,33.6236572265625,-1.944580078125,1.7962646484375
2021-09-24 22:41:27.494187,0.03466796875,0.56591796875,0.8505859375,33.6236572265625,-1.944580078125,1.7962646484375
2021-09-24 22:41:27.494274,0.03662109375,0.56689453125,0.85009765625,33.6236572265625,-1.944580078125,1.7962646484375
2021-09-24 22:41:27.494361,0.03515625,0.56494140625,0.8525390625,33.6236572265625,-1.944580078125,1.7962646484375
2021-09-24 22:41:27.494449,0.03369140625,0.56298828125,0.8505859375,33.6236572265625,-1.944580078125,1.7962646484375
2021-09-24 22:41:27.494536,0.0341796875,0.5654296875,0.853515625,33.6181640625,-1.944580078125,1.7962646484375
2021-09-24 22:41:27.494623,0.0341796875,0.5673828125,0.84765625,33.6236572265625,-1.9390869140625,1.7962646484375
2021-09-24 22:41:27.494710,0.0341796875,0.56689453125,0.8515625,33.6236572265625,-1.9390869140625,1.7962646484375
2021-09-24 22:41:27.494797,0.03515625,0.5693359375,0.85009765625,33.6236572265625,-1.9390869140625,1.7962646484375
2021-09-24 22:41:27.494885,0.03466796875,0.568359375,0.8515625,33.6236572265625,-1.9390869140625,1.7962646484375
2021-09-24 22:41:27.494973,0.03466796875,0.56640625,0.85302734375,33.6236572265625,-1.9390869140625,1.7962646484375
2021-09-24 22:41:27.495072,0.0361328125,0.56640625,0.84765625,33.6236572265625,-1.9390869140625,1.7962646484375
2021-09-24 22:41:27.495193,0.03466796875,0.56591796875,0.8486328125,33.6236572265625,-1.9390869140625,1.7962646484375
2021-09-24 22:41:27.495317,0.0341796875,0.5673828125,0.85009765625,33.6236572265625,-1.9390869140625,1.7962646484375
2021-09-24 22:41:27.495448,0.03515625,0.56787109375,0.85009765625,33.6236572265625,-1.9390869140625,1.7962646484375
2021-09-24 22:41:27.495583,0.0361328125,0.56787109375,0.8486328125,33.6236572265625,-1.9390869140625,1.7962646484375
2021-09-24 22:41:27.495712,0.03369140625,0.56787109375,0.8486328125,33.629150390625,-1.9390869140625,1.7962646484375
2021-09-24 22:41:27.495849,0.0341796875,0.56494140625,0.84814453125,33.629150390625,-1.9390869140625,1.7962646484375
2021-09-24 22:41:27.495987,0.03564453125,0.564453125,0.85302734375,33.629150390625,-1.944580078125,1.7962646484375
2021-09-24 22:41:27.496125,0.0361328125,0.56494140625,0.85302734375,33.6236572265625,-1.944580078125,1.7962646484375
2021-09-24 22:41:27.496260,0.03564453125,0.56640625,0.85302734375,33.6236572265625,-1.944580078125,1.7962646484375
2021-09-24 22:41:27.496389,0.03662109375,0.56689453125,0.85009765625,33.629150390625,-1.944580078125,1.7962646484375
2021-09-24 22:41:27.496519,0.03564453125,0.568359375,0.85107421875,33.629150390625,-1.944580078125,1.7962646484375
2021-09-24 22:41:27.496649,0.03564453125,0.56640625,0.85205078125,33.629150390625,-1.944580078125,1.7962646484375
2021-09-24 22:41:27.496774,0.03515625,0.56494140625,0.84912109375,33.629150390625,-1.944580078125,1.7962646484375
2021-09-24 22:41:27.496907,0.0341796875,0.56689453125,0.8505859375,33.629150390625,-1.944580078125,1.7962646484375
2021-09-24 22:41:27.497023,0.03466796875,0.56689453125,0.84912109375,33.629150390625,-1.944580078125,1.7962646484375
2021-09-24 22:41:27.497141,0.03369140625,0.56689453125,0.8505859375,33.629150390625,-1.944580078125,1.7962646484375
2021-09-24 22:41:27.497273,0.03466796875,0.56640625,0.8525390625,33.629150390625,-1.944580078125,1.7962646484375
2021-09-24 22:41:27.497403,0.03466796875,0.5654296875,0.84912109375,33.629150390625,-1.944580078125,1.7962646484375
2021-09-24 22:41:27.497527,0.03271484375,0.56640625,0.8515625,33.629150390625,-1.9390869140625,1.7962646484375
2021-09-24 22:41:27.497628,0.0322265625,0.5654296875,0.849609375,33.629150390625,-1.9390869140625,1.7962646484375
2021-09-24 22:41:27.497732,0.033203125,0.56640625,0.84912109375,33.629150390625,-1.9390869140625,1.7962646484375
2021-09-24 22:41:27.497850,0.03466796875,0.56591796875,0.8505859375,33.629150390625,-1.9390869140625,1.7962646484375
2021-09-24 22:41:27.497979,0.0341796875,0.56689453125,0.8515625,33.629150390625,-1.9390869140625,1.7962646484375
2021-09-24 22:41:27.498085,0.03515625,0.56787109375,0.8515625,33.629150390625,-1.9390869140625,1.7962646484375
2021-09-24 22:41:27.498189,0.037109375,0.56591796875,0.8505859375,33.629150390625,-1.9390869140625,1.7962646484375
2021-09-24 22:41:27.498286,0.0341796875,0.56689453125,0.85205078125,33.629150390625,-1.9390869140625,1.7962646484375
2021-09-24 22:41:27.498383,0.03515625,0.5654296875,0.84912109375,33.629150390625,-1.9390869140625,1.7962646484375
2021-09-24 22:41:27.498469,0.0361328125,0.5654296875,0.85498046875,33.629150390625,-1.9390869140625,1.7962646484375
2021-09-24 22:41:27.498575,0.0361328125,0.56689453125,0.85302734375,33.629150390625,-1.9390869140625,1.7962646484375
2021-09-24 22:41:27.498704,0.037109375,0.5654296875,0.853515625,33.629150390625,-1.944580078125,1.7962646484375
2021-09-24 22:41:27.498843,0.03564453125,0.564453125,0.85205078125,33.629150390625,-1.944580078125,1.7962646484375
2021-09-24 22:41:27.498975,0.03369140625,0.5654296875,0.85498046875,33.6236572265625,-1.944580078125,1.7962646484375
2021-09-24 22:41:27.499109,0.03369140625,0.5654296875,0.8515625,33.6236572265625,-1.944580078125,1.7962646484375
2021-09-24 22:41:27.499243,0.0341796875,0.56640625,0.85107421875,33.6236572265625,-1.9390869140625,1.7962646484375
2021-09-24 22:41:27.499375,0.03662109375,0.56689453125,0.85205078125,33.6236572265625,-1.9390869140625,1.7962646484375
2021-09-24 22:41:27.499506,0.0361328125,0.5673828125,0.85009765625,33.6236572265625,-1.944580078125,1.7962646484375
2021-09-24 22:41:27.499605,0.03466796875,0.56494140625,0.8486328125,33.6236572265625,-1.944580078125,1.7962646484375
2021-09-24 22:41:27.499704,0.033203125,0.56396484375,0.84814453125,33.6236572265625,-1.944580078125,1.7962646484375
2021-09-24 22:41:27.499831,0.0341796875,0.56494140625,0.85107421875,33.6236572265625,-1.944580078125,1.7962646484375
2021-09-24 22:41:27.499963,0.03369140625,0.564453125,0.85107421875,33.6236572265625,-1.9390869140625,1.7962646484375
2021-09-24 22:41:27.500095,0.03515625,0.5673828125,0.85009765625,33.6236572265625,-1.9390869140625,1.7962646484375
2021-09-24 22:41:27.500226,0.03466796875,0.568359375,0.849609375,33.629150390625,-1.9390869140625,1.7962646484375
2021-09-24 22:41:27.500356,0.033203125,0.56640625,0.84521484375,33.629150390625,-1.9390869140625,1.7962646484375
2021-09-24 22:41:27.500486,0.0341796875,0.5673828125,0.84619140625,33.629150390625,-1.9390869140625,1.7962646484375
2021-09-24 22:41:27.500620,0.0361328125,0.56494140625,0.84619140625,33.629150390625,-1.9390869140625,1.7962646484375
2021-09-24 22:41:27.500753,0.03564453125,0.56591796875,0.84765625,33.6346435546875,-1.9390869140625,1.7962646484375
2021-09-24 22:41:27.500885,0.03466796875,0.56689453125,0.8515625,33.6346435546875,-1.9390869140625,1.7962646484375
2021-09-24 22:41:27.501016,0.0361328125,0.56640625,0.849609375,33.6346435546875,-1.9390869140625,1.7962646484375
2021-09-24 22:41:27.501150,0.03369140625,0.5673828125,0.84765625,33.6346435546875,-1.9390869140625,1.7962646484375
2021-09-24 22:41:27.501296,0.03369140625,0.56689453125,0.85302734375,33.6346435546875,-1.9390869140625,1.7962646484375
2021-09-24 22:41:27.501430,0.033203125,0.56591796875,0.8505859375,33.6346435546875,-1.9390869140625,1.7962646484375
2021-09-24 22:41:27.501560,0.03515625,0.56689453125,0.85400390625,33.6346435546875,-1.9390869140625,1.7962646484375
2021-09-24 22:41:27.501694,0.0341796875,0.5654296875,0.8544921875,33.6346435546875,-1.9390869140625,1.7962646484375
2021-09-24 22:41:27.501826,0.03515625,0.5673828125,0.85107421875,33.6346435546875,-1.9390869140625,1.7962646484375
2021-09-24 22:41:27.501965,0.03662109375,0.56689453125,0.8515625,33.6346435546875,-1.9390869140625,1.7962646484375
2021-09-24 22:41:27.502110,0.0361328125,0.5654296875,0.8505859375,33.6346435546875,-1.944580078125,1.7962646484375
2021-09-24 22:41:27.502245,0.03564453125,0.56591796875,0.8466796875,33.6346435546875,-1.944580078125,1.7962646484375
2021-09-24 22:41:27.502381,0.03271484375,0.5654296875,0.85107421875,33.6346435546875,-1.9390869140625,1.7962646484375
2021-09-24 22:41:27.502518,0.0341796875,0.564453125,0.84814453125,33.6346435546875,-1.9390869140625,1.7962646484375
2021-09-24 22:41:27.502654,0.03564453125,0.5673828125,0.85009765625,33.6346435546875,-1.9390869140625,1.7962646484375
2021-09-24 22:41:27.502786,0.03466796875,0.56591796875,0.8544921875,33.6346435546875,-1.9390869140625,1.7962646484375
2021-09-24 22:41:27.502923,0.03564453125,0.56689453125,0.85107421875,33.6346435546875,-1.9390869140625,1.7962646484375
2021-09-24 22:41:27.503039,0.03662109375,0.56689453125,0.8505859375,33.6346435546875,-1.944580078125,1.7962646484375
2021-09-24 22:41:27.503129,0.03564453125,0.56494140625,0.849609375,33.6346435546875,-1.944580078125,1.7962646484375
2021-09-24 22:41:27.503213,0.03662109375,0.5654296875,0.84912109375,33.6346435546875,-1.944580078125,1.7962646484375
2021-09-24 22:41:27.503296,0.03662109375,0.564453125,0.8505859375,33.6346435546875,-1.944580078125,1.7962646484375
2021-09-24 22:41:27.503378,0.03466796875,0.5654296875,0.8505859375,33.6346435546875,-1.944580078125,1.7962646484375
2021-09-24 22:41:27.503461,0.03466796875,0.56787109375,0.849609375,33.6346435546875,-1.944580078125,1.7962646484375
2021-09-24 22:41:27.503543,0.03662109375,0.56640625,0.8486328125,33.6346435546875,-1.944580078125,1.7962646484375
2021-09-24 22:41:27.503624,0.037109375,0.56640625,0.84912109375,33.6346435546875,-1.9500732421875,1.7962646484375
2021-09-24 22:41:27.503706,0.03662109375,0.56591796875,0.8505859375,33.6346435546875,-1.9500732421875,1.7962646484375
2021-09-24 22:41:27.503788,0.03466796875,0.56689453125,0.8486328125,33.6346435546875,-1.9500732421875,1.7962646484375
2021-09-24 22:41:27.503870,0.0341796875,0.56591796875,0.8486328125,33.64013671875,-1.9500732421875,1.7962646484375
2021-09-24 22:41:27.503952,0.03515625,0.56591796875,0.85009765625,33.64013671875,-1.9500732421875,1.7962646484375
2021-09-24 22:41:27.504034,0.03564453125,0.56787109375,0.84912109375,33.64013671875,-1.9500732421875,1.7962646484375
2021-09-24 22:41:27.504116,0.0341796875,0.5673828125,0.85107421875,33.64013671875,-1.9500732421875,1.7962646484375
2021-09-24 22:41:27.504198,0.03515625,0.56591796875,0.8505859375,33.64013671875,-1.9500732421875,1.7962646484375
2021-09-24 22:41:27.504280,0.0361328125,0.564453125,0.84814453125,33.64013671875,-1.9500732421875,1.7962646484375
2021-09-24 22:41:27.504361,0.0361328125,0.5673828125,0.8515625,33.64013671875,-1.9500732421875,1.7962646484375
2021-09-24 22:41:27.504443,0.03271484375,0.56591796875,0.8505859375,33.64013671875,-1.9500732421875,1.7962646484375
2021-09-24 22:41:27.504525,0.03271484375,0.56591796875,0.85302734375,33.64013671875,-1.9500732421875,1.7962646484375
2021-09-24 22:41:27.504606,0.0341796875,0.56640625,0.8505859375,33.64013671875,-1.9500732421875,1.7962646484375
2021-09-24 22:41:27.504688,0.03369140625,0.56640625,0.85107421875,33.64013671875,-1.9500732421875,1.7962646484375
2021-09-24 22:41:27.504770,0.0341796875,0.5654296875,0.85302734375,33.64013671875,-1.9500732421875,1.7962646484375
2021-09-24 22:41:27.504851,0.03271484375,0.56494140625,0.849609375,33.64013671875,-1.9500732421875,1.7962646484375
2021-09-24 22:41:27.504932,0.03369140625,0.56640625,0.85009765625,33.64013671875,-1.944580078125,1.7962646484375
2021-09-24 22:41:27.505013,0.03564453125,0.56494140625,0.8525390625,33.64013671875,-1.944580078125,1.7962646484375
2021-09-24 22:41:27.505095,0.0361328125,0.56396484375,0.8515625,33.6346435546875,-1.9500732421875,1.7962646484375
2021-09-24 22:41:27.505176,0.03515625,0.5654296875,0.85205078125,33.6346435546875,-1.9500732421875,1.7962646484375
2021-09-24 22:41:27.505291,0.03564453125,0.5654296875,0.8515625,33.6346435546875,-1.9500732421875,1.7962646484375
2021-09-24 22:41:27.505381,0.03271484375,0.56396484375,0.85009765625,33.6346435546875,-1.944580078125,1.7962646484375
2021-09-24 22:41:27.505464,0.0341796875,0.56591796875,0.84912109375,33.6346435546875,-1.944580078125,1.7962646484375
2021-09-24 22:41:27.505546,0.03564453125,0.56640625,0.849609375,33.6346435546875,-1.944580078125,1.7962646484375
2021-09-24 22:41:27.505628,0.03515625,0.56591796875,0.8515625,33.6346435546875,-1.944580078125,1.7962646484375
2021-09-24 22:41:27.505710,0.0341796875,0.56591796875,0.84814453125,33.6346435546875,-1.944580078125,1.7962646484375
2021-09-24 22:41:27.505793,0.03515625,0.56689453125,0.85009765625,33.6346435546875,-1.944580078125,1.7962646484375
2021-09-24 22:41:27.505875,0.0341796875,0.56640625,0.84716796875,33.64013671875,-1.944580078125,1.7962646484375
2021-09-24 22:41:27.505960,0.03369140625,0.564453125,0.85009765625,33.6346435546875,-1.944580078125,1.7962646484375
2021-09-24 22:41:27.506042,0.0361328125,0.56494140625,0.85302734375,33.6346435546875,-1.9500732421875,1.7962646484375
2021-09-24 22:41:27.506125,0.0341796875,0.56591796875,0.8505859375,33.6346435546875,-1.9500732421875,1.7962646484375
2021-09-24 22:41:27.506207,0.0341796875,0.568359375,0.8505859375,33.6346435546875,-1.9500732421875,1.7962646484375
2021-09-24 22:41:27.506288,0.03662109375,0.56689453125,0.849609375,33.64013671875,-1.9500732421875,1.7962646484375
2021-09-24 22:41:27.506387,0.03515625,0.56689453125,0.8515625,33.64013671875,-1.9500732421875,1.7962646484375
2021-09-24 22:41:27.506474,0.033203125,0.56640625,0.85107421875,33.64013671875,-1.9500732421875,1.7962646484375
2021-09-24 22:41:27.506556,0.03466796875,0.56494140625,0.85205078125,33.6346435546875,-1.9500732421875,1.7962646484375
2021-09-24 22:41:27.506639,0.03515625,0.56640625,0.85302734375,33.6346435546875,-1.9500732421875,1.7962646484375
2021-09-24 22:41:27.506722,0.033203125,0.56689453125,0.853515625,33.6346435546875,-1.944580078125,1.7962646484375
2021-09-24 22:41:27.506804,0.03271484375,0.56591796875,0.8505859375,33.6346435546875,-1.944580078125,1.7962646484375
2021-09-24 22:41:27.506886,0.03369140625,0.56787109375,0.85302734375,33.6346435546875,-1.944580078125,1.7962646484375
2021-09-24 22:41:27.506968,0.03271484375,0.56689453125,0.85009765625,33.6346435546875,-1.944580078125,1.7962646484375
2021-09-24 22:41:27.507049,0.03271484375,0.56689453125,0.84716796875,33.64013671875,-1.944580078125,1.7962646484375
2021-09-24 22:41:27.507130,0.033203125,0.56494140625,0.84814453125,33.64013671875,-1.944580078125,1.7962646484375
2021-09-24 22:41:27.507212,0.0322265625,0.5654296875,0.84716796875,33.64013671875,-1.9390869140625,1.7962646484375
2021-09-24 22:41:27.507293,0.0341796875,0.564453125,0.85009765625,33.64013671875,-1.9390869140625,1.7962646484375
2021-09-24 22:41:27.507395,0.03515625,0.56689453125,0.84912109375,33.64013671875,-1.9390869140625,1.7962646484375
2021-09-24 22:41:27.507515,0.03466796875,0.56591796875,0.85107421875,33.64013671875,-1.9390869140625,1.7962646484375
2021-09-24 22:41:27.507626,0.03662109375,0.56591796875,0.85205078125,33.64013671875,-1.9390869140625,1.7962646484375
2021-09-24 22:41:27.507735,0.0341796875,0.5654296875,0.8515625,33.64013671875,-1.9390869140625,1.7962646484375
2021-09-24 22:41:27.507844,0.03369140625,0.564453125,0.85205078125,33.6346435546875,-1.9390869140625,1.7962646484375
2021-09-24 22:41:27.507953,0.03466796875,0.56591796875,0.849609375,33.6346435546875,-1.9390869140625,1.7962646484375
2021-09-24 22:41:27.508061,0.03369140625,0.56494140625,0.84912109375,33.6346435546875,-1.9390869140625,1.7962646484375
2021-09-24 22:41:27.508171,0.03564453125,0.5654296875,0.85107421875,33.6346435546875,-1.9390869140625,1.7962646484375
2021-09-24 22:41:27.508280,0.03466796875,0.56591796875,0.84765625,33.64013671875,-1.9390869140625,1.7962646484375
2021-09-24 22:41:27.508388,0.03466796875,0.5654296875,0.8515625,33.6346435546875,-1.9390869140625,1.7962646484375
2021-09-24 22:41:27.508495,0.033203125,0.56689453125,0.849609375,33.64013671875,-1.9390869140625,1.7962646484375
2021-09-24 22:41:27.508610,0.03515625,0.56640625,0.84912109375,33.64013671875,-1.9390869140625,1.7962646484375
2021-09-24 22:41:27.508718,0.03564453125,0.5654296875,0.849609375,33.64013671875,-1.9390869140625,1.7962646484375
2021-09-24 22:41:27.508826,0.03515625,0.56591796875,0.84912109375,33.64013671875,-1.9390869140625,1.7962646484375
2021-09-24 22:41:27.508943,0.03564453125,0.56689453125,0.84814453125,33.64013671875,-1.944580078125,1.7962646484375
2021-09-24 22:41:27.509053,0.0361328125,0.564453125,0.85107421875,33.64013671875,-1.944580078125,1.7962646484375
2021-09-24 22:41:27.509149,0.0322265625,0.56494140625,0.8505859375,33.64013671875,-1.9390869140625,1.7962646484375
2021-09-24 22:41:27.509256,0.03173828125,0.56640625,0.8505859375,33.64013671875,-1.9390869140625,1.7962646484375
2021-09-24 22:41:27.509347,0.0341796875,0.5654296875,0.85205078125,33.64013671875,-1.9390869140625,1.7962646484375
2021-09-24 22:41:27.509435,0.0361328125,0.56689453125,0.84912109375,33.64013671875,-1.9390869140625,1.7962646484375
2021-09-24 22:41:27.509524,0.033203125,0.5673828125,0.85009765625,33.64013671875,-1.9390869140625,1.7962646484375
2021-09-24 22:41:27.509612,0.033203125,0.56494140625,0.8466796875,33.64013671875,-1.9390869140625,1.7962646484375
2021-09-24 22:41:27.509720,0.03369140625,0.5654296875,0.8505859375,33.64013671875,-1.9390869140625,1.7962646484375
2021-09-24 22:41:27.509833,0.0322265625,0.5654296875,0.8505859375,33.64013671875,-1.93359375,1.7962646484375
2021-09-24 22:41:27.509948,0.0361328125,0.56689453125,0.85302734375,33.64013671875,-1.93359375,1.7962646484375
2021-09-24 22:41:27.510088,0.03759765625,0.5673828125,0.85107421875,33.64013671875,-1.9390869140625,1.7962646484375
2021-09-24 22:41:27.510214,0.037109375,0.56640625,0.85009765625,33.64013671875,-1.9390869140625,1.7962646484375
2021-09-24 22:41:27.510324,0.03515625,0.56640625,0.8505859375,33.64013671875,-1.9390869140625,1.7962646484375
2021-09-24 22:41:27.510435,0.03564453125,0.56591796875,0.85009765625,33.64013671875,-1.9390869140625,1.7962646484375
2021-09-24 22:41:27.510545,0.03466796875,0.5673828125,0.85302734375,33.64013671875,-1.9390869140625,1.7962646484375
2021-09-24 22:41:27.510658,0.03564453125,0.56689453125,0.85400390625,33.64013671875,-1.9390869140625,1.7962646484375
2021-09-24 22:41:27.510770,0.0361328125,0.56591796875,0.85107421875,33.64013671875,-1.9390869140625,1.7962646484375
2021-09-24 22:41:27.510880,0.0361328125,0.56591796875,0.8505859375,33.64013671875,-1.944580078125,1.7962646484375
2021-09-24 22:41:27.510992,0.03466796875,0.56640625,0.8515625,33.64013671875,-1.944580078125,1.7962646484375
2021-09-24 22:41:27.511104,0.0361328125,0.5654296875,0.85107421875,33.64013671875,-1.944580078125,1.7962646484375
2021-09-24 22:41:27.511219,0.03564453125,0.56494140625,0.8515625,33.64013671875,-1.944580078125,1.7962646484375
2021-09-24 22:41:27.511330,0.0341796875,0.56494140625,0.8544921875,33.6346435546875,-1.9500732421875,1.7962646484375
2021-09-24 22:41:27.511458,0.03466796875,0.56591796875,0.8505859375,33.6346435546875,-1.9500732421875,1.7962646484375
2021-09-24 22:41:27.511570,0.03564453125,0.56591796875,0.84912109375,33.6346435546875,-1.9500732421875,1.7962646484375
2021-09-24 22:41:27.511681,0.03369140625,0.56494140625,0.849609375,33.6346435546875,-1.9500732421875,1.7962646484375
2021-09-24 22:41:27.511790,0.0341796875,0.56640625,0.85107421875,33.6346435546875,-1.944580078125,1.7962646484375
2021-09-24 22:41:27.511898,0.0341796875,0.5673828125,0.85107421875,33.6346435546875,-1.944580078125,1.7962646484375
2021-09-24 22:41:27.512021,0.03369140625,0.5654296875,0.85009765625,33.6346435546875,-1.944580078125,1.7962646484375
2021-09-24 22:41:27.512153,0.033203125,0.564453125,0.8505859375,33.6346435546875,-1.944580078125,1.7962646484375
2021-09-24 22:41:27.512274,0.0361328125,0.5654296875,0.85205078125,33.6346435546875,-1.944580078125,1.7962646484375
2021-09-24 22:41:27.512388,0.03564453125,0.5654296875,0.853515625,33.6346435546875,-1.944580078125,1.7962646484375
2021-09-24 22:41:27.512505,0.033203125,0.56640625,0.8505859375,33.6346435546875,-1.944580078125,1.7962646484375
2021-09-24 22:41:27.512617,0.03271484375,0.56640625,0.8544921875,33.6346435546875,-1.944580078125,1.7962646484375
2021-09-24 22:41:27.512727,0.033203125,0.5654296875,0.85302734375,33.6346435546875,-1.944580078125,1.7962646484375
2021-09-24 22:41:27.512838,0.0341796875,0.56591796875,0.8515625,33.6346435546875,-1.944580078125,1.7962646484375
2021-09-24 22:41:27.512948,0.03515625,0.56640625,0.853515625,33.629150390625,-1.9390869140625,1.7962646484375
2021-09-24 22:41:27.513059,0.03515625,0.5673828125,0.85107421875,33.6346435546875,-1.9390869140625,1.7962646484375
2021-09-24 22:41:27.513170,0.0361328125,0.56689453125,0.8505859375,33.6346435546875,-1.9390869140625,1.7962646484375
2021-09-24 22:41:27.513313,0.03564453125,0.5654296875,0.8486328125,33.6346435546875,-1.9390869140625,1.7962646484375
2021-09-24 22:41:27.513441,0.03466796875,0.56689453125,0.84619140625,33.6346435546875,-1.9390869140625,1.7962646484375
2021-09-24 22:41:27.513539,0.037109375,0.56591796875,0.8505859375,33.6346435546875,-1.944580078125,1.7962646484375
2021-09-24 22:41:27.513630,0.0341796875,0.56591796875,0.85205078125,33.6346435546875,-1.944580078125,1.7962646484375
2021-09-24 22:41:27.513719,0.03564453125,0.56494140625,0.84912109375,33.6346435546875,-1.944580078125,1.7962646484375
2021-09-24 22:41:27.513808,0.03515625,0.56640625,0.853515625,33.6346435546875,-1.944580078125,1.7962646484375
2021-09-24 22:41:27.513897,0.0341796875,0.56591796875,0.84912109375,33.6346435546875,-1.944580078125,1.7962646484375
2021-09-24 22:41:27.514001,0.03271484375,0.56591796875,0.8505859375,33.6346435546875,-1.944580078125,1.7962646484375
2021-09-24 22:41:27.514100,0.03564453125,0.568359375,0.84912109375,33.6346435546875,-1.944580078125,1.7962646484375
2021-09-24 22:41:27.514197,0.03369140625,0.5673828125,0.8505859375,33.6346435546875,-1.9390869140625,1.7962646484375
2021-09-24 22:41:27.514290,0.03515625,0.56494140625,0.85302734375,33.6346435546875,-1.944580078125,1.7962646484375
2021-09-24 22:41:27.514381,0.03662109375,0.5654296875,0.85009765625,33.6346435546875,-1.944580078125,1.7962646484375
2021-09-24 22:41:27.514495,0.03515625,0.56494140625,0.84912109375,33.6346435546875,-1.944580078125,1.7962646484375
2021-09-24 22:41:27.514615,0.03515625,0.56591796875,0.85205078125,33.6346435546875,-1.944580078125,1.7962646484375
2021-09-24 22:41:27.514706,0.03466796875,0.56640625,0.84814453125,33.6346435546875,-1.944580078125,1.7962646484375
2021-09-24 22:41:27.514792,0.03564453125,0.5673828125,0.85205078125,33.6346435546875,-1.944580078125,1.7962646484375
2021-09-24 22:41:27.514879,0.03466796875,0.56689453125,0.85205078125,33.6346435546875,-1.944580078125,1.7962646484375
2021-09-24 22:41:27.514966,0.03466796875,0.56591796875,0.84912109375,33.6346435546875,-1.944580078125,1.7962646484375
2021-09-24 22:41:27.515054,0.03369140625,0.56689453125,0.8544921875,33.6346435546875,-1.944580078125,1.7962646484375
2021-09-24 22:41:27.515142,0.03369140625,0.56689453125,0.8544921875,33.6346435546875,-1.944580078125,1.7962646484375
2021-09-24 22:41:27.515229,0.033203125,0.5673828125,0.849609375,33.6346435546875,-1.944580078125,1.7962646484375
2021-09-24 22:41:27.515317,0.0341796875,0.56640625,0.85107421875,33.6346435546875,-1.944580078125,1.7962646484375
2021-09-24 22:41:27.515408,0.03369140625,0.56640625,0.85107421875,33.6346435546875,-1.944580078125,1.7962646484375
2021-09-24 22:41:27.515502,0.03466796875,0.56689453125,0.8515625,33.6346435546875,-1.944580078125,1.7962646484375
2021-09-24 22:41:27.515595,0.033203125,0.564453125,0.85302734375,33.6346435546875,-1.9390869140625,1.7962646484375
2021-09-24 22:41:27.515698,0.0361328125,0.56591796875,0.8515625,33.6346435546875,-1.9390869140625,1.7962646484375
2021-09-24 22:41:27.515792,0.0361328125,0.56591796875,0.853515625,33.6346435546875,-1.9390869140625,1.7962646484375
2021-09-24 22:41:27.515883,0.03564453125,0.56640625,0.85205078125,33.6346435546875,-1.944580078125,1.7962646484375
2021-09-24 22:41:27.515975,0.03662109375,0.56787109375,0.85009765625,33.6346435546875,-1.944580078125,1.7962646484375
2021-09-24 22:41:27.516077,0.0361328125,0.56787109375,0.85302734375,33.6346435546875,-1.944580078125,1.7962646484375
2021-09-24 22:41:27.516171,0.03369140625,0.56787109375,0.84716796875,33.6346435546875,-1.944580078125,1.7962646484375
2021-09-24 22:41:27.516286,0.03271484375,0.56640625,0.8486328125,33.6346435546875,-1.944580078125,1.7962646484375
2021-09-24 22:41:27.516408,0.0341796875,0.5654296875,0.85205078125,33.6346435546875,-1.944580078125,1.7962646484375
2021-09-24 22:41:27.516529,0.03515625,0.56494140625,0.85009765625,33.6346435546875,-1.944580078125,1.7962646484375
2021-09-24 22:41:27.516651,0.03564453125,0.56591796875,0.8515625,33.6346435546875,-1.944580078125,1.7962646484375
2021-09-24 22:41:27.516767,0.03369140625,0.5673828125,0.85205078125,33.6346435546875,-1.944580078125,1.7962646484375
2021-09-24 22:41:27.516859,0.0341796875,0.5673828125,0.85107421875,33.6346435546875,-1.944580078125,1.7962646484375
2021-09-24 22:41:27.516951,0.0361328125,0.56396484375,0.85107421875,33.6346435546875,-1.944580078125,1.7962646484375
