time,acc_x,acc_y,acc_z,roll,pitch,yaw
2021-09-22 21:07:02.024472,-0.06396484375,0.17333984375,0.96240234375,10.6622314453125,4.1253662109375,5.460205078125
2021-09-22 21:07:02.030177,-0.0615234375,0.173828125,0.96337890625,10.6622314453125,4.1473388671875,5.460205078125
2021-09-22 21:07:02.040050,-0.06298828125,0.1748046875,0.96484375,10.667724609375,4.163818359375,5.4547119140625
2021-09-22 21:07:02.050084,-0.0625,0.17626953125,0.96337890625,10.6732177734375,4.185791015625,5.4547119140625
2021-09-22 21:07:02.059996,-0.06298828125,0.17822265625,0.95947265625,10.6842041015625,4.2022705078125,5.4437255859375
2021-09-22 21:07:02.070008,-0.0634765625,0.18310546875,0.95947265625,10.70068359375,4.21875,5.438232421875
2021-09-22 21:07:02.079838,-0.05859375,0.18603515625,0.96240234375,10.711669921875,4.2352294921875,5.42724609375
2021-09-22 21:07:02.089924,-0.05810546875,0.18994140625,0.9638671875,10.7171630859375,4.2462158203125,5.4217529296875
2021-09-22 21:07:02.100027,-0.060546875,0.1923828125,0.96630859375,10.7171630859375,4.2626953125,5.4107666015625
2021-09-22 21:07:02.110553,-0.06201171875,0.18994140625,0.96875,10.7061767578125,4.2791748046875,5.3997802734375
2021-09-22 21:07:02.119693,-0.0654296875,0.1953125,0.97314453125,10.689697265625,4.3011474609375,5.38330078125
2021-09-22 21:07:02.129569,-0.0673828125,0.1982421875,0.97216796875,10.6622314453125,4.317626953125,5.361328125
2021-09-22 21:07:02.139834,-0.072265625,0.20068359375,0.97705078125,10.6292724609375,4.339599609375,5.3338623046875
2021-09-22 21:07:02.149688,-0.076171875,0.20361328125,0.98291015625,10.601806640625,4.3670654296875,5.29541015625
2021-09-22 21:07:02.159527,-0.08203125,0.20263671875,0.9833984375,10.56884765625,4.4000244140625,5.240478515625
2021-09-22 21:07:02.169845,-0.08349609375,0.19775390625,0.98828125,10.535888671875,4.4329833984375,5.1800537109375
2021-09-22 21:07:02.179584,-0.08251953125,0.19287109375,0.9873046875,10.5029296875,4.4659423828125,5.1031494140625
2021-09-22 21:07:02.189470,-0.08203125,0.18701171875,0.990234375,10.4754638671875,4.50439453125,5.020751953125
2021-09-22 21:07:02.199379,-0.08056640625,0.18798828125,0.99072265625,10.447998046875,4.5428466796875,4.932861328125
2021-09-22 21:07:02.209714,-0.0791015625,0.18896484375,0.99072265625,10.4315185546875,4.581298828125,4.8394775390625
2021-09-22 21:07:02.219458,-0.07861328125,0.1904296875,0.98779296875,10.4205322265625,4.6197509765625,4.7515869140625
2021-09-22 21:07:02.229337,-0.0791015625,0.1923828125,0.9833984375,10.4205322265625,4.658203125,4.669189453125
2021-09-22 21:07:02.239478,-0.0810546875,0.1943359375,0.982421875,10.4205322265625,4.7021484375,4.59228515625
2021-09-22 21:07:02.249438,-0.0830078125,0.19140625,0.9794921875,10.426025390625,4.7515869140625,4.5318603515625
2021-09-22 21:07:02.259292,-0.083984375,0.1904296875,0.9755859375,10.43701171875,4.801025390625,4.4769287109375
2021-09-22 21:07:02.269240,-0.083984375,0.1953125,0.9716796875,10.4534912109375,4.85595703125,4.4384765625
2021-09-22 21:07:02.279091,-0.08740234375,0.1953125,0.97119140625,10.4754638671875,4.910888671875,4.4110107421875
2021-09-22 21:07:02.289201,-0.08984375,0.193359375,0.970703125,10.5029296875,4.9713134765625,4.4000244140625
2021-09-22 21:07:02.299326,-0.09619140625,0.1923828125,0.9716796875,10.5303955078125,5.0372314453125,4.4000244140625
2021-09-22 21:07:02.309080,-0.10205078125,0.189453125,0.9697265625,10.5633544921875,5.1031494140625,4.4110107421875
2021-09-22 21:07:02.318967,-0.107421875,0.18798828125,0.97216796875,10.5908203125,5.1800537109375,4.4219970703125
2021-09-22 21:07:02.329054,-0.11181640625,0.18896484375,0.96875,10.6182861328125,5.25146484375,4.4439697265625
2021-09-22 21:07:02.338961,-0.1162109375,0.18701171875,0.966796875,10.645751953125,5.328369140625,4.4659423828125
2021-09-22 21:07:02.349074,-0.1171875,0.185546875,0.9677734375,10.667724609375,5.4052734375,4.4879150390625
2021-09-22 21:07:02.359013,-0.1171875,0.18310546875,0.97314453125,10.6842041015625,5.4766845703125,4.50439453125
2021-09-22 21:07:02.368919,-0.119140625,0.1845703125,0.970703125,10.7061767578125,5.548095703125,4.5208740234375
2021-09-22 21:07:02.378854,-0.11865234375,0.18408203125,0.96923828125,10.72265625,5.614013671875,4.5318603515625
2021-09-22 21:07:02.388743,-0.12109375,0.1845703125,0.96728515625,10.733642578125,5.679931640625,4.5428466796875
2021-09-22 21:07:02.398779,-0.12353515625,0.1875,0.96533203125,10.7501220703125,5.7403564453125,4.54833984375
2021-09-22 21:07:02.408816,-0.1220703125,0.18505859375,0.9609375,10.7611083984375,5.80078125,4.5538330078125
2021-09-22 21:07:02.418717,-0.1240234375,0.18408203125,0.96337890625,10.7666015625,5.855712890625,4.5538330078125
2021-09-22 21:07:02.428627,-0.12451171875,0.18212890625,0.9580078125,10.7720947265625,5.91064453125,4.559326171875
2021-09-22 21:07:02.438651,-0.12451171875,0.18212890625,0.95751953125,10.7830810546875,5.9600830078125,4.559326171875
2021-09-22 21:07:02.448671,-0.1220703125,0.1826171875,0.955078125,10.78857421875,6.0040283203125,4.559326171875
2021-09-22 21:07:02.458551,-0.12255859375,0.1826171875,0.95703125,10.78857421875,6.0479736328125,4.5648193359375
2021-09-22 21:07:02.468639,-0.11962890625,0.18359375,0.96240234375,10.78857421875,6.08642578125,4.5703125
2021-09-22 21:07:02.478576,-0.1220703125,0.181640625,0.96484375,10.777587890625,6.1248779296875,4.5867919921875
2021-09-22 21:07:02.488587,-0.12548828125,0.18017578125,0.96728515625,10.755615234375,6.163330078125,4.603271484375
2021-09-22 21:07:02.498486,-0.12646484375,0.18310546875,0.9716796875,10.7281494140625,6.2017822265625,4.6307373046875
2021-09-22 21:07:02.508342,-0.13037109375,0.181640625,0.974609375,10.6842041015625,6.240234375,4.658203125
2021-09-22 21:07:02.518572,-0.13134765625,0.18359375,0.97802734375,10.634765625,6.273193359375,4.6856689453125
2021-09-22 21:07:02.528355,-0.13330078125,0.18310546875,0.97705078125,10.579833984375,6.3006591796875,4.7186279296875
2021-09-22 21:07:02.538240,-0.1318359375,0.1884765625,0.97802734375,10.513916015625,6.328125,4.7515869140625
2021-09-22 21:07:02.548508,-0.130859375,0.1884765625,0.9765625,10.447998046875,6.3555908203125,4.7845458984375
2021-09-22 21:07:02.558304,-0.13134765625,0.18701171875,0.97216796875,10.382080078125,6.3775634765625,4.8175048828125
2021-09-22 21:07:02.568218,-0.126953125,0.18408203125,0.97021484375,10.3106689453125,6.39404296875,4.8504638671875
2021-09-22 21:07:02.578107,-0.12646484375,0.181640625,0.96435546875,10.2557373046875,6.4105224609375,4.8834228515625
2021-09-22 21:07:02.588241,-0.1279296875,0.17919921875,0.96630859375,10.206298828125,6.427001953125,4.9273681640625
2021-09-22 21:07:02.598203,-0.12548828125,0.17578125,0.96533203125,10.162353515625,6.43798828125,4.9713134765625
2021-09-22 21:07:02.608751,-0.123046875,0.173828125,0.96875,10.12939453125,6.448974609375,5.020751953125
2021-09-22 21:07:02.618013,-0.12060546875,0.17138671875,0.97021484375,10.096435546875,6.4544677734375,5.07568359375
2021-09-22 21:07:02.628072,-0.11962890625,0.1650390625,0.97216796875,10.0689697265625,6.4599609375,5.1416015625
2021-09-22 21:07:02.638036,-0.1201171875,0.162109375,0.96923828125,10.04150390625,6.4654541015625,5.20751953125
2021-09-22 21:07:02.647975,-0.1181640625,0.15966796875,0.96826171875,10.01953125,6.4654541015625,5.2789306640625
2021-09-22 21:07:02.657856,-0.115234375,0.16162109375,0.9658203125,9.99755859375,6.4599609375,5.3558349609375
2021-09-22 21:07:02.667971,-0.1162109375,0.16650390625,0.9658203125,9.9810791015625,6.4599609375,5.438232421875
2021-09-22 21:07:02.677854,-0.1181640625,0.16943359375,0.96484375,9.9700927734375,6.4544677734375,5.526123046875
2021-09-22 21:07:02.687760,-0.1162109375,0.16845703125,0.96826171875,9.9591064453125,6.448974609375,5.6085205078125
2021-09-22 21:07:02.697782,-0.1181640625,0.1650390625,0.96728515625,9.9371337890625,6.448974609375,5.701904296875
2021-09-22 21:07:02.707662,-0.11865234375,0.16357421875,0.97021484375,9.90966796875,6.448974609375,5.789794921875
2021-09-22 21:07:02.717709,-0.1201171875,0.1611328125,0.966796875,9.8712158203125,6.448974609375,5.8831787109375
2021-09-22 21:07:02.727670,-0.11669921875,0.16162109375,0.9658203125,9.832763671875,6.448974609375,5.9710693359375
2021-09-22 21:07:02.737775,-0.11474609375,0.16357421875,0.96533203125,9.788818359375,6.4434814453125,6.0589599609375
2021-09-22 21:07:02.747733,-0.11474609375,0.16064453125,0.97021484375,9.7393798828125,6.4434814453125,6.141357421875
2021-09-22 21:07:02.757583,-0.11328125,0.15478515625,0.9765625,9.6844482421875,6.4434814453125,6.2237548828125
2021-09-22 21:07:02.767517,-0.11181640625,0.150390625,0.9794921875,9.6240234375,6.43798828125,6.30615234375
2021-09-22 21:07:02.777461,-0.1123046875,0.14697265625,0.98291015625,9.5526123046875,6.43798828125,6.3885498046875
2021-09-22 21:07:02.787709,-0.1142578125,0.1484375,0.98388671875,9.481201171875,6.4324951171875,6.470947265625
2021-09-22 21:07:02.797529,-0.11328125,0.1513671875,0.98388671875,9.4097900390625,6.427001953125,6.5478515625
2021-09-22 21:07:02.807367,-0.1083984375,0.1533203125,0.97900390625,9.33837890625,6.416015625,6.624755859375
2021-09-22 21:07:02.817309,-0.10693359375,0.154296875,0.97705078125,9.2779541015625,6.405029296875,6.70166015625
2021-09-22 21:07:02.827394,-0.1044921875,0.15478515625,0.98291015625,9.2230224609375,6.3885498046875,6.778564453125
2021-09-22 21:07:02.837492,-0.103515625,0.15234375,0.9833984375,9.173583984375,6.3720703125,6.8499755859375
2021-09-22 21:07:02.847370,-0.1025390625,0.15380859375,0.986328125,9.1351318359375,6.35009765625,6.9268798828125
2021-09-22 21:07:02.857275,-0.10302734375,0.15283203125,0.9853515625,9.0966796875,6.328125,7.0037841796875
2021-09-22 21:07:02.867367,-0.10107421875,0.15478515625,0.98828125,9.063720703125,6.30615234375,7.0806884765625
2021-09-22 21:07:02.877212,-0.10107421875,0.1552734375,0.98486328125,9.0362548828125,6.273193359375,7.1575927734375
2021-09-22 21:07:02.887125,-0.099609375,0.15625,0.98291015625,9.0087890625,6.2457275390625,7.239990234375
2021-09-22 21:07:02.897263,-0.099609375,0.15771484375,0.978515625,8.9813232421875,6.207275390625,7.3223876953125
2021-09-22 21:07:02.907157,-0.09716796875,0.1572265625,0.9755859375,8.953857421875,6.1688232421875,7.4102783203125
2021-09-22 21:07:02.917049,-0.09912109375,0.1513671875,0.9794921875,8.9154052734375,6.13037109375,7.4981689453125
2021-09-22 21:07:02.927165,-0.09814453125,0.14306640625,0.982421875,8.8714599609375,6.08642578125,7.5860595703125
2021-09-22 21:07:02.936955,-0.1005859375,0.1376953125,0.9853515625,8.822021484375,6.0369873046875,7.679443359375
2021-09-22 21:07:02.947050,-0.1064453125,0.1318359375,0.9833984375,8.76708984375,5.9930419921875,7.767333984375
2021-09-22 21:07:02.956923,-0.10986328125,0.12744140625,0.98193359375,8.712158203125,5.9490966796875,7.8497314453125
2021-09-22 21:07:02.966824,-0.10986328125,0.125,0.9765625,8.6572265625,5.899658203125,7.93212890625
2021-09-22 21:07:02.976730,-0.10693359375,0.12255859375,0.97412109375,8.6077880859375,5.8502197265625,8.0035400390625
2021-09-22 21:07:02.986906,-0.10791015625,0.12158203125,0.9765625,8.5693359375,5.80078125,8.074951171875
2021-09-22 21:07:02.996824,-0.107421875,0.12109375,0.97314453125,8.5308837890625,5.745849609375,8.140869140625
2021-09-22 21:07:03.006717,-0.10986328125,0.12158203125,0.9736328125,8.4979248046875,5.6964111328125,8.2012939453125
2021-09-22 21:07:03.016820,-0.10888671875,0.1220703125,0.98095703125,8.4759521484375,5.64697265625,8.26171875
2021-09-22 21:07:03.026906,-0.10693359375,0.12353515625,0.97607421875,8.448486328125,5.5975341796875,8.316650390625
2021-09-22 21:07:03.036658,-0.10595703125,0.1279296875,0.9814453125,8.4320068359375,5.548095703125,8.3770751953125
2021-09-22 21:07:03.046568,-0.10205078125,0.13037109375,0.97998046875,8.4100341796875,5.4986572265625,8.4320068359375
2021-09-22 21:07:03.056655,-0.10009765625,0.1328125,0.98046875,8.3935546875,5.44921875,8.492431640625
2021-09-22 21:07:03.066571,-0.1015625,0.13330078125,0.98486328125,8.3660888671875,5.4107666015625,8.5528564453125
2021-09-22 21:07:03.076466,-0.1015625,0.13427734375,0.9814453125,8.338623046875,5.372314453125,8.6187744140625
2021-09-22 21:07:03.086576,-0.09814453125,0.13671875,0.9794921875,8.3056640625,5.33935546875,8.690185546875
2021-09-22 21:07:03.096561,-0.09912109375,0.138671875,0.97607421875,8.272705078125,5.306396484375,8.7615966796875
2021-09-22 21:07:03.106965,-0.0966796875,0.13916015625,0.97705078125,8.2342529296875,5.284423828125,8.8385009765625
2021-09-22 21:07:03.116378,-0.0947265625,0.1357421875,0.97705078125,8.1903076171875,5.2569580078125,8.9154052734375
2021-09-22 21:07:03.126299,-0.09716796875,0.1357421875,0.98291015625,8.1353759765625,5.240478515625,8.98681640625
2021-09-22 21:07:03.136471,-0.10107421875,0.1298828125,0.98779296875,8.074951171875,5.2294921875,9.0582275390625
2021-09-22 21:07:03.146344,-0.1005859375,0.1240234375,0.9853515625,8.0035400390625,5.2239990234375,9.1241455078125
2021-09-22 21:07:03.156259,-0.0947265625,0.12255859375,0.9873046875,7.921142578125,5.218505859375,9.1790771484375
2021-09-22 21:07:03.166146,-0.09033203125,0.1259765625,0.9873046875,7.84423828125,5.2130126953125,9.228515625
2021-09-22 21:07:03.176037,-0.08837890625,0.126953125,0.9873046875,7.767333984375,5.2020263671875,9.2724609375
2021-09-22 21:07:03.186276,-0.08642578125,0.12646484375,0.99072265625,7.6959228515625,5.196533203125,9.305419921875
2021-09-22 21:07:03.196097,-0.0849609375,0.1259765625,0.99072265625,7.62451171875,5.1910400390625,9.33837890625
2021-09-22 21:07:03.206010,-0.0849609375,0.123046875,0.998046875,7.5531005859375,5.1800537109375,9.3658447265625
2021-09-22 21:07:03.216105,-0.08544921875,0.11865234375,1.00439453125,7.481689453125,5.1690673828125,9.3878173828125
2021-09-22 21:07:03.226030,-0.08642578125,0.11669921875,1.00634765625,7.40478515625,5.16357421875,9.404296875
2021-09-22 21:07:03.236114,-0.08544921875,0.1171875,1.0048828125,7.3333740234375,5.152587890625,9.415283203125
2021-09-22 21:07:03.246108,-0.08154296875,0.11865234375,1.0087890625,7.2674560546875,5.1416015625,9.4207763671875
2021-09-22 21:07:03.255978,-0.07861328125,0.1201171875,1.005859375,7.2125244140625,5.130615234375,9.42626953125
2021-09-22 21:07:03.265892,-0.07177734375,0.12255859375,1.00439453125,7.174072265625,5.1141357421875,9.42626953125
2021-09-22 21:07:03.275814,-0.06591796875,0.126953125,1.005859375,7.14111328125,5.0921630859375,9.437255859375
2021-09-22 21:07:03.285966,-0.0615234375,0.12646484375,1.0078125,7.1246337890625,5.064697265625,9.4482421875
2021-09-22 21:07:03.295873,-0.06201171875,0.12353515625,1.009765625,7.108154296875,5.0372314453125,9.4647216796875
2021-09-22 21:07:03.305767,-0.0625,0.12060546875,1.01171875,7.09716796875,5.0042724609375,9.4921875
2021-09-22 21:07:03.315657,-0.06298828125,0.1181640625,1.01171875,7.0916748046875,4.976806640625,9.525146484375
2021-09-22 21:07:03.325552,-0.06591796875,0.1181640625,1.0087890625,7.09716796875,4.9493408203125,9.55810546875
2021-09-22 21:07:03.335866,-0.06591796875,0.1181640625,1.0048828125,7.108154296875,4.9163818359375,9.591064453125
2021-09-22 21:07:03.345662,-0.0625,0.12109375,0.9951171875,7.1356201171875,4.888916015625,9.6240234375
2021-09-22 21:07:03.355557,-0.0625,0.1240234375,0.99462890625,7.174072265625,4.85595703125,9.6624755859375
2021-09-22 21:07:03.365483,-0.0634765625,0.12353515625,0.98974609375,7.22900390625,4.822998046875,9.700927734375
2021-09-22 21:07:03.375531,-0.064453125,0.125,0.98828125,7.2894287109375,4.7900390625,9.7393798828125
2021-09-22 21:07:03.385606,-0.0712890625,0.125,0.986328125,7.3553466796875,4.7625732421875,9.7723388671875
2021-09-22 21:07:03.395421,-0.07470703125,0.126953125,0.982421875,7.4267578125,4.7406005859375,9.8052978515625
2021-09-22 21:07:03.405344,-0.07666015625,0.12646484375,0.9794921875,7.49267578125,4.72412109375,9.832763671875
2021-09-22 21:07:03.415464,-0.07568359375,0.12744140625,0.97607421875,7.5640869140625,4.7021484375,9.854736328125
2021-09-22 21:07:03.425348,-0.07080078125,0.1318359375,0.97119140625,7.6300048828125,4.6856689453125,9.86572265625
2021-09-22 21:07:03.435417,-0.068359375,0.13232421875,0.97021484375,7.6849365234375,4.669189453125,9.876708984375
2021-09-22 21:07:03.445401,-0.06689453125,0.13671875,0.96484375,7.745361328125,4.6527099609375,9.876708984375
2021-09-22 21:07:03.455323,-0.06884765625,0.13671875,0.9619140625,7.789306640625,4.6417236328125,9.876708984375
2021-09-22 21:07:03.465214,-0.0732421875,0.134765625,0.9619140625,7.8167724609375,4.6307373046875,9.8712158203125
2021-09-22 21:07:03.475117,-0.0791015625,0.1337890625,0.95751953125,7.833251953125,4.6197509765625,9.8602294921875
2021-09-22 21:07:03.485336,-0.0830078125,0.13427734375,0.95654296875,7.833251953125,4.6197509765625,9.8382568359375
2021-09-22 21:07:03.495196,-0.0791015625,0.1328125,0.95166015625,7.822265625,4.6142578125,9.8162841796875
2021-09-22 21:07:03.505082,-0.07275390625,0.13427734375,0.95263671875,7.80029296875,4.603271484375,9.7833251953125
2021-09-22 21:07:03.515065,-0.07080078125,0.12939453125,0.94921875,7.7618408203125,4.59228515625,9.7503662109375
2021-09-22 21:07:03.524916,-0.0732421875,0.12841796875,0.94775390625,7.7178955078125,4.581298828125,9.7174072265625
2021-09-22 21:07:03.535180,-0.0751953125,0.12451171875,0.9521484375,7.6629638671875,4.5703125,9.678955078125
2021-09-22 21:07:03.544990,-0.08056640625,0.12158203125,0.94873046875,7.5970458984375,4.559326171875,9.6405029296875
2021-09-22 21:07:03.554877,-0.08349609375,0.1181640625,0.95263671875,7.525634765625,4.54833984375,9.5965576171875
2021-09-22 21:07:03.564810,-0.0810546875,0.11767578125,0.951171875,7.44873046875,4.5318603515625,9.547119140625
2021-09-22 21:07:03.574880,-0.0751953125,0.12060546875,0.95263671875,7.371826171875,4.5098876953125,9.4976806640625
2021-09-22 21:07:03.585005,-0.072265625,0.12060546875,0.9609375,7.2894287109375,4.4879150390625,9.4482421875
2021-09-22 21:07:03.594781,-0.072265625,0.11767578125,0.9658203125,7.2015380859375,4.4549560546875,9.404296875
2021-09-22 21:07:03.605351,-0.07275390625,0.1142578125,0.9716796875,7.09716796875,4.427490234375,9.3603515625
2021-09-22 21:07:03.614603,-0.07373046875,0.1171875,0.9755859375,6.9818115234375,4.3890380859375,9.327392578125
2021-09-22 21:07:03.624664,-0.07666015625,0.11669921875,0.978515625,6.85546875,4.3505859375,9.2999267578125
2021-09-22 21:07:03.634694,-0.076171875,0.11474609375,0.9765625,6.7181396484375,4.3121337890625,9.2724609375
2021-09-22 21:07:03.644552,-0.072265625,0.11865234375,0.9814453125,6.580810546875,4.2626953125,9.25048828125
2021-09-22 21:07:03.654633,-0.07470703125,0.11962890625,0.9814453125,6.448974609375,4.2132568359375,9.2230224609375
2021-09-22 21:07:03.664557,-0.076171875,0.12353515625,0.98583984375,6.317138671875,4.163818359375,9.2010498046875
2021-09-22 21:07:03.674475,-0.0751953125,0.12109375,0.9931640625,6.1907958984375,4.1033935546875,9.1790771484375
2021-09-22 21:07:03.684546,-0.0751953125,0.11962890625,0.99658203125,6.064453125,4.04296875,9.1571044921875
2021-09-22 21:07:03.694530,-0.07958984375,0.1162109375,1.00048828125,5.943603515625,3.97705078125,9.1351318359375
2021-09-22 21:07:03.704520,-0.0849609375,0.1123046875,0.9970703125,5.8282470703125,3.9056396484375,9.1131591796875
2021-09-22 21:07:03.714377,-0.0888671875,0.10986328125,1.001953125,5.7183837890625,3.834228515625,9.0802001953125
2021-09-22 21:07:03.724265,-0.0859375,0.11083984375,0.9951171875,5.625,3.7628173828125,9.0362548828125
2021-09-22 21:07:03.734403,-0.0830078125,0.1103515625,0.99755859375,5.548095703125,3.680419921875,8.98681640625
2021-09-22 21:07:03.744349,-0.0791015625,0.107421875,1.0009765625,5.4766845703125,3.592529296875,8.931884765625
2021-09-22 21:07:03.754225,-0.07861328125,0.103515625,1.00146484375,5.4107666015625,3.504638671875,8.865966796875
2021-09-22 21:07:03.764344,-0.07470703125,0.10205078125,1.0068359375,5.33935546875,3.4112548828125,8.7945556640625
2021-09-22 21:07:03.774209,-0.06982421875,0.10302734375,1.0009765625,5.2734375,3.31787109375,8.72314453125
2021-09-22 21:07:03.784131,-0.0693359375,0.103515625,0.99658203125,5.196533203125,3.218994140625,8.6517333984375
2021-09-22 21:07:03.794092,-0.0673828125,0.10498046875,0.99267578125,5.11962890625,3.1146240234375,8.580322265625
2021-09-22 21:07:03.804162,-0.06787109375,0.103515625,0.99267578125,5.03173828125,3.0157470703125,8.514404296875
2021-09-22 21:07:03.814061,-0.0693359375,0.1015625,0.98681640625,4.9383544921875,2.9168701171875,8.448486328125
2021-09-22 21:07:03.823999,-0.0673828125,0.09619140625,0.97998046875,4.833984375,2.8179931640625,8.382568359375
2021-09-22 21:07:03.833883,-0.06494140625,0.091796875,0.98046875,4.72412109375,2.7191162109375,8.3111572265625
2021-09-22 21:07:03.844085,-0.0595703125,0.08544921875,0.9755859375,4.603271484375,2.6202392578125,8.2342529296875
2021-09-22 21:07:03.853933,-0.0615234375,0.083984375,0.97900390625,4.471435546875,2.5213623046875,8.1463623046875
2021-09-22 21:07:03.863841,-0.0634765625,0.07373046875,0.98974609375,4.3231201171875,2.427978515625,8.0419921875
2021-09-22 21:07:03.873752,-0.0654296875,0.06689453125,0.99072265625,4.1583251953125,2.3291015625,7.9266357421875
2021-09-22 21:07:03.883911,-0.05810546875,0.06201171875,0.994140625,3.9825439453125,2.2357177734375,7.7947998046875
2021-09-22 21:07:03.893856,-0.0498046875,0.0576171875,0.98779296875,3.8067626953125,2.13134765625,7.6519775390625
2021-09-22 21:07:03.903721,-0.0400390625,0.05615234375,0.9892578125,3.6309814453125,2.0269775390625,7.503662109375
2021-09-22 21:07:03.913666,-0.03271484375,0.05224609375,0.990234375,3.460693359375,1.922607421875,7.349853515625
2021-09-22 21:07:03.923748,-0.03173828125,0.04443359375,1.0,3.3013916015625,1.82373046875,7.196044921875
2021-09-22 21:07:03.933687,-0.02880859375,0.0400390625,1.00732421875,3.1475830078125,1.724853515625,7.05322265625
2021-09-22 21:07:03.943647,-0.025390625,0.0400390625,1.01025390625,3.01025390625,1.6314697265625,6.9158935546875
2021-09-22 21:07:03.953682,-0.0244140625,0.0419921875,1.0146484375,2.8839111328125,1.549072265625,6.7950439453125
2021-09-22 21:07:03.963565,-0.0166015625,0.0439453125,1.01611328125,2.7685546875,1.4666748046875,6.70166015625
2021-09-22 21:07:03.973488,-0.01025390625,0.04931640625,1.01611328125,2.6751708984375,1.395263671875,6.624755859375
2021-09-22 21:07:03.983497,-0.0146484375,0.04443359375,1.02783203125,2.5872802734375,1.329345703125,6.580810546875
2021-09-22 21:07:03.993588,-0.01513671875,0.046875,1.0263671875,2.515869140625,1.2799072265625,6.5643310546875
2021-09-22 21:07:04.003477,-0.01171875,0.04443359375,1.03466796875,2.449951171875,1.2359619140625,6.5863037109375
2021-09-22 21:07:04.013389,-0.01904296875,0.04345703125,1.02978515625,2.39501953125,1.2030029296875,6.6302490234375
2021-09-22 21:07:04.023398,-0.0205078125,0.04296875,1.03662109375,2.3565673828125,1.1810302734375,6.6961669921875
2021-09-22 21:07:04.033441,-0.02294921875,0.04150390625,1.037109375,2.3291015625,1.16455078125,6.7840576171875
2021-09-22 21:07:04.043406,-0.0234375,0.04345703125,1.0380859375,2.3126220703125,1.153564453125,6.8829345703125
2021-09-22 21:07:04.053213,-0.01904296875,0.04296875,1.0458984375,2.318115234375,1.142578125,6.998291015625
2021-09-22 21:07:04.063157,-0.0234375,0.0419921875,1.04296875,2.3345947265625,1.131591796875,7.119140625
2021-09-22 21:07:04.073250,-0.02685546875,0.03955078125,1.04736328125,2.373046875,1.1260986328125,7.239990234375
2021-09-22 21:07:04.083165,-0.02783203125,0.03857421875,1.04541015625,2.4169921875,1.12060546875,7.36083984375
2021-09-22 21:07:04.093169,-0.02587890625,0.04248046875,1.0400390625,2.48291015625,1.1151123046875,7.4761962890625
2021-09-22 21:07:04.103736,-0.02880859375,0.0439453125,1.0380859375,2.559814453125,1.1041259765625,7.5860595703125
2021-09-22 21:07:04.112953,-0.02880859375,0.04638671875,1.03271484375,2.6422119140625,1.0931396484375,7.6849365234375
2021-09-22 21:07:04.123019,-0.029296875,0.05029296875,1.02978515625,2.735595703125,1.087646484375,7.7838134765625
2021-09-22 21:07:04.132933,-0.03369140625,0.05224609375,1.0224609375,2.83447265625,1.07666015625,7.8662109375
2021-09-22 21:07:04.142977,-0.0283203125,0.0537109375,1.0185546875,2.933349609375,1.065673828125,7.9376220703125
2021-09-22 21:07:04.152828,-0.0244140625,0.05908203125,1.0078125,3.0377197265625,1.0491943359375,8.0035400390625
2021-09-22 21:07:04.162895,-0.021484375,0.06201171875,1.00537109375,3.14208984375,1.0272216796875,8.0584716796875
2021-09-22 21:07:04.172840,-0.021484375,0.064453125,0.998046875,3.240966796875,0.999755859375,8.1024169921875
2021-09-22 21:07:04.182774,-0.01904296875,0.0625,0.994140625,3.3343505859375,0.9722900390625,8.140869140625
2021-09-22 21:07:04.192732,-0.02001953125,0.06298828125,0.98583984375,3.4222412109375,0.94482421875,8.173828125
2021-09-22 21:07:04.202744,-0.01806640625,0.0615234375,0.97900390625,3.5101318359375,0.911865234375,8.19580078125
2021-09-22 21:07:04.212697,-0.013671875,0.060546875,0.97412109375,3.5870361328125,0.8734130859375,8.2177734375
2021-09-22 21:07:04.222593,-0.0107421875,0.05810546875,0.96826171875,3.6639404296875,0.8349609375,8.2342529296875
2021-09-22 21:07:04.232494,-0.0087890625,0.05810546875,0.9609375,3.7408447265625,0.7965087890625,8.250732421875
2021-09-22 21:07:04.242687,-0.0078125,0.0615234375,0.958984375,3.8177490234375,0.758056640625,8.272705078125
2021-09-22 21:07:04.252551,-0.0048828125,0.06201171875,0.953125,3.8946533203125,0.714111328125,8.2891845703125
2021-09-22 21:07:04.262440,-0.001953125,0.0615234375,0.953125,3.966064453125,0.670166015625,8.3111572265625
2021-09-22 21:07:04.272566,0.001953125,0.0625,0.94970703125,4.031982421875,0.6207275390625,8.338623046875
2021-09-22 21:07:04.282497,0.00439453125,0.06298828125,0.95361328125,4.0924072265625,0.5712890625,8.37158203125
2021-09-22 21:07:04.292468,0.0029296875,0.06005859375,0.9541015625,4.130859375,0.52734375,8.404541015625
2021-09-22 21:07:04.302333,0.00634765625,0.05908203125,0.95166015625,4.163818359375,0.472412109375,8.448486328125
2021-09-22 21:07:04.312453,0.0078125,0.0625,0.951171875,4.1802978515625,0.4229736328125,8.492431640625
2021-09-22 21:07:04.322341,0.009765625,0.068359375,0.95263671875,4.1912841796875,0.3680419921875,8.5418701171875
2021-09-22 21:07:04.332253,0.00927734375,0.0732421875,0.95458984375,4.1912841796875,0.3131103515625,8.5858154296875
2021-09-22 21:07:04.342280,0.01025390625,0.07958984375,0.95751953125,4.1802978515625,0.252685546875,8.63525390625
2021-09-22 21:07:04.352284,0.01123046875,0.080078125,0.9619140625,4.163818359375,0.1922607421875,8.67919921875
2021-09-22 21:07:04.362180,0.0107421875,0.07568359375,0.9658203125,4.1363525390625,0.1373291015625,8.72314453125
2021-09-22 21:07:04.372120,0.0087890625,0.076171875,0.96728515625,4.097900390625,0.076904296875,8.756103515625
2021-09-22 21:07:04.382184,0.01220703125,0.0703125,0.9716796875,4.0484619140625,0.010986328125,8.7835693359375
2021-09-22 21:07:04.392239,0.013671875,0.0703125,0.97509765625,3.9935302734375,-0.0439453125,8.800048828125
2021-09-22 21:07:04.402104,0.01318359375,0.0703125,0.9775390625,3.9385986328125,-0.10986328125,8.8055419921875
2021-09-22 21:07:04.411976,0.01416015625,0.07275390625,0.97998046875,3.8726806640625,-0.1702880859375,8.81103515625
2021-09-22 21:07:04.422167,0.0166015625,0.07275390625,0.98388671875,3.80126953125,-0.2362060546875,8.800048828125
2021-09-22 21:07:04.432056,0.0166015625,0.07080078125,0.9873046875,3.7188720703125,-0.296630859375,8.7835693359375
2021-09-22 21:07:04.442132,0.017578125,0.06591796875,0.98828125,3.62548828125,-0.3570556640625,8.7615966796875
2021-09-22 21:07:04.451948,0.01953125,0.06396484375,0.9873046875,3.526611328125,-0.41748046875,8.734130859375
2021-09-22 21:07:04.461806,0.021484375,0.0615234375,0.98974609375,3.4332275390625,-0.4833984375,8.701171875
2021-09-22 21:07:04.471865,0.02197265625,0.060546875,0.98681640625,3.33984375,-0.5438232421875,8.668212890625
2021-09-22 21:07:04.481797,0.021484375,0.0556640625,0.99267578125,3.251953125,-0.604248046875,8.6297607421875
2021-09-22 21:07:04.491711,0.0205078125,0.0517578125,0.99560546875,3.175048828125,-0.6591796875,8.59130859375
2021-09-22 21:07:04.501563,0.02099609375,0.04833984375,1.00341796875,3.09814453125,-0.714111328125,8.54736328125
2021-09-22 21:07:04.511731,0.0205078125,0.04638671875,1.0048828125,3.021240234375,-0.7635498046875,8.5089111328125
2021-09-22 21:07:04.521619,0.0234375,0.04833984375,1.00390625,2.9498291015625,-0.81298828125,8.470458984375
2021-09-22 21:07:04.531553,0.02490234375,0.0537109375,0.998046875,2.889404296875,-0.8514404296875,8.4320068359375
2021-09-22 21:07:04.541517,0.02734375,0.0546875,0.99560546875,2.83447265625,-0.889892578125,8.404541015625
2021-09-22 21:07:04.551570,0.02587890625,0.05419921875,0.998046875,2.79052734375,-0.9228515625,8.3770751953125
2021-09-22 21:07:04.561557,0.02490234375,0.052734375,1.0029296875,2.7520751953125,-0.94482421875,8.360595703125
2021-09-22 21:07:04.571465,0.02587890625,0.048828125,1.0068359375,2.724609375,-0.9613037109375,8.3551025390625
2021-09-22 21:07:04.581540,0.02734375,0.046875,1.01171875,2.6971435546875,-0.9722900390625,8.349609375
2021-09-22 21:07:04.591461,0.0244140625,0.04541015625,1.01806640625,2.669677734375,-0.9722900390625,8.3551025390625
2021-09-22 21:07:04.602096,0.0234375,0.0439453125,1.01708984375,2.6422119140625,-0.966796875,8.3660888671875
2021-09-22 21:07:04.611330,0.02490234375,0.04443359375,1.01416015625,2.61474609375,-0.955810546875,8.382568359375
2021-09-22 21:07:04.621195,0.0234375,0.046875,1.0087890625,2.5927734375,-0.9393310546875,8.404541015625
2021-09-22 21:07:04.631306,0.0263671875,0.0478515625,1.0078125,2.5762939453125,-0.9173583984375,8.4320068359375
2021-09-22 21:07:04.641202,0.02783203125,0.04345703125,1.00927734375,2.559814453125,-0.8953857421875,8.4649658203125
2021-09-22 21:07:04.651109,0.02880859375,0.0400390625,1.01171875,2.548828125,-0.8734130859375,8.4979248046875
2021-09-22 21:07:04.661197,0.0302734375,0.03662109375,1.017578125,2.5433349609375,-0.8514404296875,8.5308837890625
2021-09-22 21:07:04.671267,0.02880859375,0.03271484375,1.0244140625,2.537841796875,-0.8294677734375,8.5693359375
2021-09-22 21:07:04.681121,0.02685546875,0.0302734375,1.0283203125,2.515869140625,-0.8074951171875,8.602294921875
2021-09-22 21:07:04.691006,0.0234375,0.02978515625,1.0302734375,2.4884033203125,-0.7855224609375,8.63525390625
2021-09-22 21:07:04.701100,0.0205078125,0.02880859375,1.02685546875,2.449951171875,-0.7635498046875,8.6627197265625
2021-09-22 21:07:04.710999,0.0185546875,0.029296875,1.0166015625,2.4114990234375,-0.7415771484375,8.6846923828125
2021-09-22 21:07:04.721019,0.01904296875,0.03515625,1.01171875,2.384033203125,-0.7305908203125,8.701171875
2021-09-22 21:07:04.730885,0.01953125,0.0390625,1.005859375,2.3675537109375,-0.7196044921875,8.7066650390625
2021-09-22 21:07:04.740977,0.0205078125,0.04150390625,1.00146484375,2.362060546875,-0.714111328125,8.7066650390625
2021-09-22 21:07:04.750898,0.02490234375,0.0419921875,1.001953125,2.3675537109375,-0.714111328125,8.701171875
2021-09-22 21:07:04.760769,0.0263671875,0.03857421875,1.00244140625,2.3785400390625,-0.72509765625,8.6956787109375
2021-09-22 21:07:04.770812,0.025390625,0.03466796875,1.0078125,2.39501953125,-0.7305908203125,8.690185546875
2021-09-22 21:07:04.780901,0.02734375,0.03271484375,1.00830078125,2.406005859375,-0.7470703125,8.6846923828125
2021-09-22 21:07:04.790752,0.025390625,0.03125,1.0146484375,2.4114990234375,-0.7635498046875,8.67919921875
2021-09-22 21:07:04.800696,0.0234375,0.033203125,1.01123046875,2.4169921875,-0.7855224609375,8.6737060546875
2021-09-22 21:07:04.810753,0.0224609375,0.0341796875,1.00732421875,2.4169921875,-0.8074951171875,8.6737060546875
2021-09-22 21:07:04.820783,0.02197265625,0.03759765625,1.0,2.4114990234375,-0.8349609375,8.668212890625
2021-09-22 21:07:04.830663,0.02099609375,0.0390625,0.98828125,2.4169921875,-0.85693359375,8.668212890625
2021-09-22 21:07:04.840569,0.0205078125,0.04443359375,0.9853515625,2.427978515625,-0.87890625,8.668212890625
2021-09-22 21:07:04.850509,0.0185546875,0.04345703125,0.982421875,2.43896484375,-0.90087890625,8.668212890625
2021-09-22 21:07:04.860518,0.0205078125,0.04248046875,0.98046875,2.4554443359375,-0.9228515625,8.668212890625
2021-09-22 21:07:04.870468,0.02001953125,0.04052734375,0.97705078125,2.4774169921875,-0.94482421875,8.668212890625
2021-09-22 21:07:04.880431,0.02099609375,0.0419921875,0.9775390625,2.5048828125,-0.9613037109375,8.668212890625
2021-09-22 21:07:04.890517,0.02001953125,0.0400390625,0.978515625,2.52685546875,-0.977783203125,8.6737060546875
2021-09-22 21:07:04.900455,0.01806640625,0.037109375,0.984375,2.548828125,-0.98876953125,8.6737060546875
2021-09-22 21:07:04.910320,0.0185546875,0.03662109375,0.98681640625,2.57080078125,-0.9942626953125,8.668212890625
2021-09-22 21:07:04.920209,0.01611328125,0.03955078125,0.98779296875,2.5872802734375,-0.999755859375,8.668212890625
2021-09-22 21:07:04.930380,0.015625,0.04345703125,0.9873046875,2.5982666015625,-0.999755859375,8.6572265625
2021-09-22 21:07:04.940274,0.01416015625,0.04931640625,0.98828125,2.61474609375,-0.9942626953125,8.646240234375
2021-09-22 21:07:04.950171,0.01220703125,0.05224609375,0.98583984375,2.625732421875,-0.9832763671875,8.63525390625
2021-09-22 21:07:04.960247,0.01171875,0.0537109375,0.982421875,2.63671875,-0.9722900390625,8.61328125
2021-09-22 21:07:04.970149,0.01318359375,0.05615234375,0.98388671875,2.65869140625,-0.955810546875,8.5858154296875
2021-09-22 21:07:04.980231,0.017578125,0.05859375,0.98486328125,2.6806640625,-0.933837890625,8.558349609375
2021-09-22 21:07:04.990096,0.017578125,0.05859375,0.98828125,2.713623046875,-0.911865234375,8.525390625
2021-09-22 21:07:05.000135,0.01513671875,0.056640625,0.99609375,2.74658203125,-0.8843994140625,8.4869384765625
2021-09-22 21:07:05.010048,0.015625,0.0537109375,0.99658203125,2.7740478515625,-0.8514404296875,8.448486328125
2021-09-22 21:07:05.019968,0.015625,0.0537109375,0.99658203125,2.801513671875,-0.8184814453125,8.41552734375
2021-09-22 21:07:05.030047,0.015625,0.05322265625,0.99609375,2.823486328125,-0.780029296875,8.3770751953125
2021-09-22 21:07:05.040028,0.0126953125,0.052734375,0.9931640625,2.845458984375,-0.736083984375,8.3331298828125
2021-09-22 21:07:05.049909,0.009765625,0.05419921875,0.99462890625,2.867431640625,-0.6866455078125,8.294677734375
2021-09-22 21:07:05.059812,0.0087890625,0.052734375,0.98876953125,2.87841796875,-0.6317138671875,8.250732421875
2021-09-22 21:07:05.069739,0.00732421875,0.05517578125,0.99072265625,2.8948974609375,-0.5712890625,8.206787109375
2021-09-22 21:07:05.079895,0.00830078125,0.056640625,0.98583984375,2.911376953125,-0.5108642578125,8.162841796875
2021-09-22 21:07:05.089804,0.00732421875,0.05810546875,0.986328125,2.9278564453125,-0.439453125,8.1134033203125
2021-09-22 21:07:05.100361,0.00634765625,0.05908203125,0.986328125,2.933349609375,-0.37353515625,8.0694580078125
2021-09-22 21:07:05.109581,0.0048828125,0.06005859375,0.98583984375,2.933349609375,-0.296630859375,8.031005859375
2021-09-22 21:07:05.119686,0.00732421875,0.05517578125,0.9873046875,2.92236328125,-0.2252197265625,7.9925537109375
2021-09-22 21:07:05.129596,0.00390625,0.0556640625,0.98046875,2.900390625,-0.15380859375,7.9541015625
2021-09-22 21:07:05.139623,-0.0009765625,0.05615234375,0.978515625,2.87841796875,-0.0714111328125,7.9156494140625
2021-09-22 21:07:05.149603,-0.00537109375,0.05419921875,0.97705078125,2.8509521484375,0.0,7.877197265625
2021-09-22 21:07:05.159584,-0.00537109375,0.0556640625,0.9794921875,2.8289794921875,0.0823974609375,7.833251953125
2021-09-22 21:07:05.169169,-0.0068359375,0.05517578125,0.98291015625,2.801513671875,0.1593017578125,7.7838134765625
2021-09-22 21:07:05.179569,-0.0078125,0.05224609375,0.990234375,2.779541015625,0.24169921875,7.7288818359375
2021-09-22 21:07:05.189596,-0.01318359375,0.05029296875,0.99462890625,2.74658203125,0.318603515625,7.6739501953125
2021-09-22 21:07:05.199458,-0.01318359375,0.05126953125,0.99658203125,2.713623046875,0.4010009765625,7.6080322265625
2021-09-22 21:07:05.209363,-0.01416015625,0.05322265625,0.99462890625,2.6806640625,0.472412109375,7.5421142578125
2021-09-22 21:07:05.219415,-0.01220703125,0.05419921875,0.9931640625,2.6531982421875,0.5438232421875,7.4761962890625
2021-09-22 21:07:05.229335,-0.01611328125,0.05517578125,0.9931640625,2.6202392578125,0.6097412109375,7.4102783203125
2021-09-22 21:07:05.239263,-0.01513671875,0.05224609375,0.9951171875,2.5982666015625,0.670166015625,7.3443603515625
2021-09-22 21:07:05.249261,-0.01611328125,0.04736328125,0.9970703125,2.5653076171875,0.72509765625,7.283935546875
2021-09-22 21:07:05.259163,-0.02099609375,0.041015625,0.998046875,2.5323486328125,0.7745361328125,7.22900390625
2021-09-22 21:07:05.269253,-0.02099609375,0.03564453125,1.00439453125,2.4993896484375,0.8184814453125,7.1795654296875
2021-09-22 21:07:05.279161,-0.02197265625,0.03125,1.00830078125,2.4554443359375,0.85693359375,7.130126953125
2021-09-22 21:07:05.289049,-0.02197265625,0.03076171875,1.00830078125,2.4169921875,0.889892578125,7.086181640625
2021-09-22 21:07:05.299257,-0.0185546875,0.0283203125,1.00390625,2.373046875,0.9173583984375,7.042236328125
2021-09-22 21:07:05.309079,-0.01708984375,0.0341796875,1.0,2.340087890625,0.933837890625,7.00927734375
2021-09-22 21:07:05.318995,-0.0205078125,0.0390625,1.005859375,2.3126220703125,0.94482421875,6.9818115234375
2021-09-22 21:07:05.328923,-0.02392578125,0.0390625,1.00537109375,2.28515625,0.9503173828125,6.9598388671875
2021-09-22 21:07:05.339026,-0.02490234375,0.0400390625,1.0029296875,2.2686767578125,0.955810546875,6.943359375
2021-09-22 21:07:05.349146,-0.0244140625,0.04052734375,1.00146484375,2.2576904296875,0.9503173828125,6.9378662109375
2021-09-22 21:07:05.358906,-0.02294921875,0.03955078125,1.00390625,2.252197265625,0.9393310546875,6.932373046875
2021-09-22 21:07:05.368926,-0.0234375,0.041015625,1.0,2.252197265625,0.9283447265625,6.9268798828125
2021-09-22 21:07:05.378858,-0.02587890625,0.0419921875,0.998046875,2.252197265625,0.9063720703125,6.9268798828125
2021-09-22 21:07:05.388780,-0.0244140625,0.04248046875,1.001953125,2.2576904296875,0.8843994140625,6.932373046875
2021-09-22 21:07:05.398647,-0.0244140625,0.04248046875,1.0,2.2576904296875,0.8514404296875,6.943359375
2021-09-22 21:07:05.408669,-0.02294921875,0.04150390625,1.0,2.2576904296875,0.8184814453125,6.954345703125
2021-09-22 21:07:05.418733,-0.02197265625,0.041015625,1.00146484375,2.252197265625,0.780029296875,6.96533203125
2021-09-22 21:07:05.428628,-0.02294921875,0.0390625,1.00048828125,2.2467041015625,0.7415771484375,6.976318359375
2021-09-22 21:07:05.438562,-0.02294921875,0.0400390625,0.99609375,2.2357177734375,0.6976318359375,6.9927978515625
2021-09-22 21:07:05.448464,-0.0205078125,0.03759765625,0.99462890625,2.2247314453125,0.6536865234375,7.0037841796875
2021-09-22 21:07:05.458670,-0.01708984375,0.04150390625,0.99462890625,2.21923828125,0.604248046875,7.020263671875
2021-09-22 21:07:05.468549,-0.01708984375,0.0400390625,0.99462890625,2.2137451171875,0.5548095703125,7.0367431640625
2021-09-22 21:07:05.478414,-0.01708984375,0.0390625,0.99609375,2.197265625,0.4998779296875,7.05322265625
2021-09-22 21:07:05.488541,-0.02099609375,0.03857421875,0.994140625,2.186279296875,0.450439453125,7.064208984375
2021-09-22 21:07:05.498468,-0.0185546875,0.03955078125,0.98974609375,2.1697998046875,0.4010009765625,7.0806884765625
2021-09-22 21:07:05.508332,-0.01708984375,0.03955078125,0.9912109375,2.1533203125,0.3515625,7.0916748046875
2021-09-22 21:07:05.518321,-0.01416015625,0.03857421875,0.98681640625,2.1368408203125,0.296630859375,7.1026611328125
2021-09-22 21:07:05.528378,-0.01416015625,0.0380859375,0.98583984375,2.120361328125,0.2471923828125,7.1136474609375
2021-09-22 21:07:05.538265,-0.009765625,0.03662109375,0.98095703125,2.1038818359375,0.1922607421875,7.130126953125
2021-09-22 21:07:05.548191,-0.01220703125,0.0341796875,0.98291015625,2.08740234375,0.1483154296875,7.14111328125
2021-09-22 21:07:05.558076,-0.01123046875,0.0283203125,0.9892578125,2.0654296875,0.098876953125,7.1575927734375
2021-09-22 21:07:05.568326,-0.0107421875,0.02587890625,0.99072265625,2.0379638671875,0.054931640625,7.174072265625
2021-09-22 21:07:05.578182,-0.01123046875,0.02685546875,0.99072265625,2.0050048828125,0.0164794921875,7.18505859375
2021-09-22 21:07:05.588059,-0.01123046875,0.02587890625,0.99169921875,1.9720458984375,-0.0164794921875,7.2015380859375
2021-09-22 21:07:05.598668,-0.0078125,0.0283203125,0.98779296875,1.93359375,-0.0494384765625,7.2125244140625
2021-09-22 21:07:05.607882,-0.00439453125,0.033203125,0.98388671875,1.900634765625,-0.076904296875,7.2235107421875
2021-09-22 21:07:05.618214,-0.00341796875,0.0361328125,0.984375,1.86767578125,-0.098876953125,7.2344970703125
2021-09-22 21:07:05.627998,0.0,0.03955078125,0.986328125,1.845703125,-0.120849609375,7.2509765625
2021-09-22 21:07:05.637163,0.00048828125,0.0400390625,0.990234375,1.8182373046875,-0.142822265625,7.2674560546875
2021-09-22 21:07:05.647947,-0.00048828125,0.03466796875,0.98974609375,1.790771484375,-0.15380859375,7.283935546875
2021-09-22 21:07:05.657856,0.0009765625,0.03173828125,0.99560546875,1.7578125,-0.164794921875,7.3004150390625
2021-09-22 21:07:05.667809,0.0009765625,0.02783203125,0.99267578125,1.724853515625,-0.1702880859375,7.3223876953125
2021-09-22 21:07:05.677925,-0.00048828125,0.0263671875,0.9970703125,1.6864013671875,-0.17578125,7.3443603515625
2021-09-22 21:07:05.687790,0.00048828125,0.0263671875,0.99658203125,1.658935546875,-0.17578125,7.3663330078125
2021-09-22 21:07:05.697719,0.00244140625,0.02734375,1.00048828125,1.6314697265625,-0.1812744140625,7.3828125
2021-09-22 21:07:05.707605,0.00439453125,0.0283203125,1.00390625,1.60400390625,-0.1812744140625,7.40478515625
2021-09-22 21:07:05.717750,0.00341796875,0.0263671875,1.0087890625,1.5765380859375,-0.1812744140625,7.4267578125
2021-09-22 21:07:05.727707,0.00146484375,0.02490234375,1.00732421875,1.5435791015625,-0.1812744140625,7.44873046875
2021-09-22 21:07:05.737596,0.00341796875,0.02392578125,1.0087890625,1.51611328125,-0.1812744140625,7.470703125
2021-09-22 21:07:05.747506,0.00537109375,0.0224609375,1.005859375,1.483154296875,-0.1812744140625,7.49267578125
2021-09-22 21:07:05.757552,0.0048828125,0.0244140625,1.00634765625,1.4556884765625,-0.186767578125,7.5146484375
2021-09-22 21:07:05.767511,0.00341796875,0.0263671875,1.0068359375,1.4337158203125,-0.1922607421875,7.5421142578125
2021-09-22 21:07:05.777682,0.00390625,0.02392578125,1.00732421875,1.417236328125,-0.19775390625,7.55859375
2021-09-22 21:07:05.787607,0.0009765625,0.0263671875,1.00927734375,1.4007568359375,-0.2032470703125,7.58056640625
2021-09-22 21:07:05.797456,0.00048828125,0.0263671875,1.01416015625,1.395263671875,-0.208740234375,7.591552734375
2021-09-22 21:07:05.807394,-0.00048828125,0.02294921875,1.01123046875,1.3897705078125,-0.2142333984375,7.6025390625
2021-09-22 21:07:05.817289,0.00146484375,0.02490234375,1.0107421875,1.3897705078125,-0.2252197265625,7.6080322265625
2021-09-22 21:07:05.827340,0.00244140625,0.02783203125,1.009765625,1.40625,-0.230712890625,7.613525390625
2021-09-22 21:07:05.837406,0.0048828125,0.02880859375,1.01220703125,1.4227294921875,-0.24169921875,7.6190185546875
2021-09-22 21:07:05.847239,0.0078125,0.0283203125,1.0078125,1.4501953125,-0.2581787109375,7.6190185546875
2021-09-22 21:07:05.857153,0.0068359375,0.025390625,1.005859375,1.4776611328125,-0.2691650390625,7.62451171875
2021-09-22 21:07:05.867243,0.0068359375,0.025390625,1.009765625,1.505126953125,-0.2801513671875,7.62451171875
2021-09-22 21:07:05.877168,0.00732421875,0.02294921875,1.009765625,1.5325927734375,-0.296630859375,7.635498046875
2021-09-22 21:07:05.887232,0.00244140625,0.02197265625,1.00732421875,1.5545654296875,-0.3076171875,7.6409912109375
2021-09-22 21:07:05.897054,0.0048828125,0.02490234375,1.00244140625,1.5765380859375,-0.318603515625,7.646484375
2021-09-22 21:07:05.907155,0.00732421875,0.025390625,0.99853515625,1.593017578125,-0.32958984375,7.6519775390625
2021-09-22 21:07:05.917050,0.00732421875,0.0283203125,0.9921875,1.614990234375,-0.340576171875,7.6629638671875
2021-09-22 21:07:05.926966,0.0087890625,0.02783203125,0.9873046875,1.6424560546875,-0.3570556640625,7.679443359375
2021-09-22 21:07:05.937051,0.00830078125,0.02783203125,0.9833984375,1.669921875,-0.3680419921875,7.6904296875
2021-09-22 21:07:05.946847,0.00634765625,0.0263671875,0.98388671875,1.69189453125,-0.3790283203125,7.71240234375
2021-09-22 21:07:05.956877,0.00634765625,0.0224609375,0.98779296875,1.7138671875,-0.3900146484375,7.734375
2021-09-22 21:07:05.966861,0.0048828125,0.01904296875,0.98681640625,1.7193603515625,-0.4010009765625,7.75634765625
2021-09-22 21:07:05.976726,0.00390625,0.015625,0.9892578125,1.7193603515625,-0.406494140625,7.7728271484375
2021-09-22 21:07:05.986722,0.0048828125,0.01513671875,0.98388671875,1.7083740234375,-0.41748046875,7.7947998046875
2021-09-22 21:07:05.996828,0.00390625,0.01513671875,0.982421875,1.702880859375,-0.4229736328125,7.811279296875
2021-09-22 21:07:06.006695,0.005859375,0.015625,0.984375,1.69189453125,-0.428466796875,7.822265625
2021-09-22 21:07:06.016594,0.0048828125,0.01513671875,0.98291015625,1.680908203125,-0.4339599609375,7.833251953125
2021-09-22 21:07:06.026689,0.00732421875,0.017578125,0.98779296875,1.6754150390625,-0.439453125,7.833251953125
2021-09-22 21:07:06.036593,0.00732421875,0.0185546875,0.98828125,1.6754150390625,-0.4449462890625,7.833251953125
2021-09-22 21:07:06.046692,0.00830078125,0.02001953125,0.98876953125,1.669921875,-0.450439453125,7.8277587890625
2021-09-22 21:07:06.056549,0.01513671875,0.0224609375,0.990234375,1.669921875,-0.4559326171875,7.8167724609375
2021-09-22 21:07:06.066607,0.0185546875,0.02587890625,0.99267578125,1.6644287109375,-0.4669189453125,7.8057861328125
2021-09-22 21:07:06.076489,0.01953125,0.029296875,0.98974609375,1.658935546875,-0.472412109375,7.80029296875
2021-09-22 21:07:06.086358,0.02392578125,0.03369140625,0.990234375,1.64794921875,-0.4833984375,7.7947998046875
2021-09-22 21:07:06.097246,0.02392578125,0.03466796875,0.99072265625,1.636962890625,-0.494384765625,7.789306640625
2021-09-22 21:07:06.106298,0.02392578125,0.037109375,0.99072265625,1.6204833984375,-0.50537109375,7.7947998046875
2021-09-22 21:07:06.116347,0.02587890625,0.03662109375,0.99462890625,1.6094970703125,-0.5218505859375,7.80029296875
2021-09-22 21:07:06.126226,0.0263671875,0.03564453125,0.9951171875,1.5985107421875,-0.538330078125,7.811279296875
2021-09-22 21:07:06.136135,0.02587890625,0.0322265625,0.99462890625,1.58203125,-0.5548095703125,7.8277587890625
2021-09-22 21:07:06.146227,0.0244140625,0.03173828125,0.9951171875,1.571044921875,-0.5712890625,7.8387451171875
2021-09-22 21:07:06.156266,0.0263671875,0.02734375,0.998046875,1.5545654296875,-0.59326171875,7.855224609375
2021-09-22 21:07:06.166109,0.0244140625,0.02587890625,1.00048828125,1.5435791015625,-0.615234375,7.8717041015625
2021-09-22 21:07:06.176032,0.0224609375,0.0263671875,1.001953125,1.5325927734375,-0.63720703125,7.8826904296875
2021-09-22 21:07:06.186077,0.01904296875,0.02490234375,0.9970703125,1.527099609375,-0.6646728515625,7.88818359375
2021-09-22 21:07:06.195987,0.01953125,0.0244140625,0.99609375,1.527099609375,-0.692138671875,7.8936767578125
2021-09-22 21:07:06.206132,0.02001953125,0.02978515625,0.99755859375,1.5325927734375,-0.7196044921875,7.88818359375
2021-09-22 21:07:06.215906,0.0205078125,0.0322265625,0.99609375,1.5435791015625,-0.7470703125,7.877197265625
2021-09-22 21:07:06.225953,0.01806640625,0.03173828125,0.99853515625,1.56005859375,-0.780029296875,7.8607177734375
2021-09-22 21:07:06.235879,0.015625,0.03271484375,0.998046875,1.5765380859375,-0.8074951171875,7.8387451171875
2021-09-22 21:07:06.245775,0.01904296875,0.0380859375,0.99755859375,1.5985107421875,-0.8349609375,7.8057861328125
2021-09-22 21:07:06.255727,0.0234375,0.0380859375,0.99560546875,1.614990234375,-0.867919921875,7.7728271484375
2021-09-22 21:07:06.265917,0.02099609375,0.0390625,0.99609375,1.6314697265625,-0.8953857421875,7.7398681640625
2021-09-22 21:07:06.275743,0.021484375,0.0400390625,0.9970703125,1.64794921875,-0.9283447265625,7.7069091796875
2021-09-22 21:07:06.285711,0.0205078125,0.037109375,0.99853515625,1.6534423828125,-0.9503173828125,7.66845703125
2021-09-22 21:07:06.295579,0.02197265625,0.0361328125,0.9990234375,1.64794921875,-0.977783203125,7.635498046875
2021-09-22 21:07:06.305668,0.0205078125,0.03515625,0.9990234375,1.6424560546875,-0.999755859375,7.5970458984375
2021-09-22 21:07:06.315767,0.0205078125,0.02978515625,0.998046875,1.6204833984375,-1.0162353515625,7.5640869140625
2021-09-22 21:07:06.325563,0.0224609375,0.02685546875,0.99365234375,1.593017578125,-1.03271484375,7.5311279296875
2021-09-22 21:07:06.335656,0.02294921875,0.02099609375,0.99365234375,1.5655517578125,-1.0491943359375,7.4981689453125
2021-09-22 21:07:06.345529,0.0185546875,0.01904296875,0.99365234375,1.5325927734375,-1.0601806640625,7.470703125
2021-09-22 21:07:06.355501,0.017578125,0.0205078125,0.990234375,1.5106201171875,-1.065673828125,7.437744140625
2021-09-22 21:07:06.365349,0.01904296875,0.0166015625,0.99169921875,1.4886474609375,-1.065673828125,7.4102783203125
2021-09-22 21:07:06.375572,0.01806640625,0.015625,0.9921875,1.47216796875,-1.065673828125,7.3773193359375
2021-09-22 21:07:06.385418,0.01708984375,0.01611328125,0.99755859375,1.4556884765625,-1.065673828125,7.3443603515625
2021-09-22 21:07:06.395329,0.0166015625,0.015625,0.9951171875,1.4501953125,-1.0601806640625,7.3114013671875
2021-09-22 21:07:06.405261,0.0166015625,0.01708984375,0.99560546875,1.4447021484375,-1.0546875,7.27294921875
2021-09-22 21:07:06.415319,0.01806640625,0.01904296875,0.99072265625,1.4447021484375,-1.0491943359375,7.2344970703125
2021-09-22 21:07:06.425419,0.01904296875,0.0234375,0.99267578125,1.4556884765625,-1.0382080078125,7.2015380859375
2021-09-22 21:07:06.435261,0.01806640625,0.02587890625,0.9892578125,1.4666748046875,-1.0272216796875,7.1630859375
2021-09-22 21:07:06.445126,0.01611328125,0.0263671875,0.9921875,1.4776611328125,-1.0162353515625,7.130126953125
2021-09-22 21:07:06.455228,0.0166015625,0.02685546875,0.990234375,1.4886474609375,-1.0052490234375,7.09716796875
2021-09-22 21:07:06.465128,0.0146484375,0.02783203125,0.9921875,1.494140625,-0.98876953125,7.0697021484375
2021-09-22 21:07:06.475055,0.013671875,0.029296875,0.98974609375,1.494140625,-0.966796875,7.042236328125
2021-09-22 21:07:06.485048,0.013671875,0.02734375,0.98974609375,1.4886474609375,-0.94482421875,7.020263671875
2021-09-22 21:07:06.495097,0.015625,0.0234375,0.98828125,1.47216796875,-0.9283447265625,6.998291015625
2021-09-22 21:07:06.505040,0.01708984375,0.02392578125,0.98876953125,1.461181640625,-0.9063720703125,6.9818115234375
2021-09-22 21:07:06.514939,0.01708984375,0.02490234375,0.986328125,1.4501953125,-0.889892578125,6.96533203125
2021-09-22 21:07:06.524809,0.01708984375,0.02685546875,0.98486328125,1.439208984375,-0.8734130859375,6.954345703125
2021-09-22 21:07:06.535082,0.0146484375,0.02587890625,0.98583984375,1.4227294921875,-0.8514404296875,6.9488525390625
2021-09-22 21:07:06.544847,0.01171875,0.02490234375,0.98828125,1.4117431640625,-0.8349609375,6.943359375
2021-09-22 21:07:06.554793,0.009765625,0.0224609375,0.98974609375,1.395263671875,-0.8184814453125,6.9378662109375
2021-09-22 21:07:06.564871,0.01318359375,0.02099609375,0.98779296875,1.373291015625,-0.8074951171875,6.9378662109375
2021-09-22 21:07:06.574821,0.01611328125,0.021484375,0.9853515625,1.3568115234375,-0.7965087890625,6.932373046875
2021-09-22 21:07:06.584955,0.015625,0.02197265625,0.98779296875,1.34033203125,-0.791015625,6.9268798828125
2021-09-22 21:07:06.595409,0.015625,0.0224609375,0.99169921875,1.3238525390625,-0.791015625,6.92138671875
2021-09-22 21:07:06.604570,0.01611328125,0.02490234375,0.990234375,1.3128662109375,-0.791015625,6.92138671875
2021-09-22 21:07:06.614674,0.015625,0.02392578125,0.99169921875,1.2908935546875,-0.7965087890625,6.9158935546875
2021-09-22 21:07:06.624562,0.0146484375,0.0224609375,0.9951171875,1.2689208984375,-0.802001953125,6.910400390625
2021-09-22 21:07:06.634495,0.015625,0.02001953125,1.0,1.241455078125,-0.81298828125,6.910400390625
2021-09-22 21:07:06.644472,0.0146484375,0.02099609375,1.001953125,1.2139892578125,-0.8294677734375,6.9049072265625
2021-09-22 21:07:06.654515,0.01513671875,0.02392578125,1.001953125,1.1865234375,-0.8514404296875,6.8994140625
2021-09-22 21:07:06.664489,0.01220703125,0.02734375,0.9990234375,1.1590576171875,-0.867919921875,6.8939208984375
2021-09-22 21:07:06.674378,0.01513671875,0.0302734375,1.001953125,1.1370849609375,-0.889892578125,6.8829345703125
2021-09-22 21:07:06.684502,0.01708984375,0.02734375,1.00390625,1.109619140625,-0.911865234375,6.87744140625
2021-09-22 21:07:06.694453,0.01904296875,0.0283203125,1.00634765625,1.087646484375,-0.94482421875,6.87744140625
2021-09-22 21:07:06.704326,0.0185546875,0.0283203125,1.0009765625,1.0711669921875,-0.9722900390625,6.87744140625
2021-09-22 21:07:06.714208,0.017578125,0.0302734375,0.99951171875,1.0601806640625,-0.999755859375,6.87744140625
2021-09-22 21:07:06.724303,0.02001953125,0.0322265625,0.99951171875,1.0491943359375,-1.0382080078125,6.87744140625
2021-09-22 21:07:06.734232,0.0205078125,0.03125,0.998046875,1.0491943359375,-1.0711669921875,6.8829345703125
2021-09-22 21:07:06.744301,0.02197265625,0.029296875,1.00390625,1.0546875,-1.1041259765625,6.8939208984375
2021-09-22 21:07:06.754342,0.0224609375,0.02587890625,1.00439453125,1.0546875,-1.1370849609375,6.9049072265625
2021-09-22 21:07:06.764189,0.02099609375,0.0234375,1.00537109375,1.0546875,-1.1700439453125,6.9268798828125
2021-09-22 21:07:06.774075,0.02099609375,0.01806640625,1.00830078125,1.0491943359375,-1.2030029296875,6.943359375
2021-09-22 21:07:06.784023,0.0205078125,0.013671875,1.00537109375,1.0382080078125,-1.2359619140625,6.96533203125
2021-09-22 21:07:06.794313,0.02001953125,0.013671875,1.0048828125,1.0272216796875,-1.263427734375,6.9927978515625
2021-09-22 21:07:06.804075,0.02001953125,0.0185546875,1.00341796875,1.021728515625,-1.2908935546875,7.0147705078125
2021-09-22 21:07:06.813935,0.02099609375,0.0185546875,0.9990234375,1.0162353515625,-1.318359375,7.0367431640625
2021-09-22 21:07:06.823908,0.01904296875,0.02099609375,0.99755859375,1.021728515625,-1.34033203125,7.064208984375
2021-09-22 21:07:06.833830,0.0166015625,0.02197265625,1.0009765625,1.021728515625,-1.3623046875,7.086181640625
2021-09-22 21:07:06.843884,0.01611328125,0.02197265625,0.998046875,1.0272216796875,-1.3787841796875,7.1026611328125
2021-09-22 21:07:06.853953,0.01904296875,0.021484375,0.99609375,1.0382080078125,-1.395263671875,7.1246337890625
2021-09-22 21:07:06.863791,0.01953125,0.021484375,0.99560546875,1.043701171875,-1.40625,7.14111328125
2021-09-22 21:07:06.873880,0.0205078125,0.021484375,0.9931640625,1.0601806640625,-1.417236328125,7.152099609375
2021-09-22 21:07:06.883756,0.0224609375,0.02001953125,0.9951171875,1.0711669921875,-1.4227294921875,7.1685791015625
2021-09-22 21:07:06.893682,0.02392578125,0.02001953125,0.99365234375,1.087646484375,-1.42822265625,7.1795654296875
2021-09-22 21:07:06.903814,0.025390625,0.0234375,0.99560546875,1.0986328125,-1.4337158203125,7.1905517578125
2021-09-22 21:07:06.913752,0.02490234375,0.02001953125,0.99267578125,1.1041259765625,-1.4337158203125,7.20703125
2021-09-22 21:07:06.923631,0.025390625,0.01806640625,0.99072265625,1.109619140625,-1.42822265625,7.2235107421875
2021-09-22 21:07:06.933544,0.0234375,0.0185546875,0.99609375,1.1041259765625,-1.4227294921875,7.239990234375
2021-09-22 21:07:06.943485,0.0244140625,0.0205078125,0.9921875,1.0986328125,-1.417236328125,7.261962890625
2021-09-22 21:07:06.953544,0.02392578125,0.0205078125,0.9931640625,1.0931396484375,-1.40625,7.2784423828125
2021-09-22 21:07:06.963532,0.025390625,0.01904296875,0.9921875,1.0821533203125,-1.395263671875,7.3004150390625
2021-09-22 21:07:06.973415,0.025390625,0.01708984375,0.98828125,1.0711669921875,-1.38427734375,7.3223876953125
2021-09-22 21:07:06.983341,0.02392578125,0.01708984375,0.990234375,1.065673828125,-1.3677978515625,7.3443603515625
2021-09-22 21:07:06.993411,0.0263671875,0.01611328125,0.9912109375,1.0546875,-1.3568115234375,7.3663330078125
2021-09-22 21:07:07.003301,0.0263671875,0.013671875,0.99072265625,1.0491943359375,-1.34033203125,7.393798828125
2021-09-22 21:07:07.013332,0.02783203125,0.013671875,0.99267578125,1.0382080078125,-1.3238525390625,7.4212646484375
2021-09-22 21:07:07.023197,0.0263671875,0.0126953125,0.994140625,1.03271484375,-1.3128662109375,7.44873046875
2021-09-22 21:07:07.033290,0.02490234375,0.01220703125,0.9921875,1.021728515625,-1.3018798828125,7.4761962890625
2021-09-22 21:07:07.043210,0.02294921875,0.013671875,0.99267578125,1.0162353515625,-1.2908935546875,7.503662109375
2021-09-22 21:07:07.053112,0.025390625,0.01513671875,0.9931640625,1.0107421875,-1.2799072265625,7.5311279296875
2021-09-22 21:07:07.063323,0.02392578125,0.0126953125,0.99462890625,1.0052490234375,-1.2744140625,7.55859375
2021-09-22 21:07:07.073152,0.02392578125,0.0146484375,0.99365234375,1.0052490234375,-1.2689208984375,7.58056640625
2021-09-22 21:07:07.083049,0.02294921875,0.01416015625,0.99365234375,1.0052490234375,-1.2689208984375,7.6080322265625
2021-09-22 21:07:07.093666,0.0224609375,0.01171875,0.9970703125,1.0052490234375,-1.263427734375,7.6300048828125
2021-09-22 21:07:07.102862,0.0244140625,0.01171875,0.99755859375,1.0052490234375,-1.2689208984375,7.6519775390625
2021-09-22 21:07:07.113121,0.02392578125,0.01220703125,0.99755859375,1.0052490234375,-1.2744140625,7.66845703125
2021-09-22 21:07:07.122990,0.02490234375,0.01123046875,0.99609375,0.999755859375,-1.2799072265625,7.6849365234375
2021-09-22 21:07:07.132824,0.02587890625,0.01220703125,0.99560546875,0.999755859375,-1.2908935546875,7.701416015625
2021-09-22 21:07:07.142778,0.02490234375,0.01513671875,0.99462890625,0.9942626953125,-1.3018798828125,7.71240234375
2021-09-22 21:07:07.152830,0.025390625,0.01611328125,0.99267578125,0.9942626953125,-1.318359375,7.723388671875
2021-09-22 21:07:07.162800,0.0263671875,0.01806640625,0.9931640625,0.9942626953125,-1.3348388671875,7.734375
2021-09-22 21:07:07.172772,0.02734375,0.0185546875,0.99267578125,0.999755859375,-1.351318359375,7.745361328125
2021-09-22 21:07:07.182672,0.02685546875,0.01708984375,0.9921875,1.0052490234375,-1.373291015625,7.7508544921875
2021-09-22 21:07:07.192738,0.02685546875,0.01708984375,0.99365234375,1.0107421875,-1.3897705078125,7.7618408203125
2021-09-22 21:07:07.202632,0.03076171875,0.01513671875,0.98876953125,1.021728515625,-1.417236328125,7.7728271484375
2021-09-22 21:07:07.212555,0.03076171875,0.01220703125,0.9873046875,1.03271484375,-1.439208984375,7.7838134765625
2021-09-22 21:07:07.222586,0.03125,0.013671875,0.986328125,1.043701171875,-1.4666748046875,7.80029296875
2021-09-22 21:07:07.232594,0.03076171875,0.0126953125,0.9853515625,1.0546875,-1.4886474609375,7.8167724609375
2021-09-22 21:07:07.242527,0.0283203125,0.0146484375,0.98681640625,1.065673828125,-1.5106201171875,7.833251953125
2021-09-22 21:07:07.252496,0.02880859375,0.01513671875,0.98876953125,1.07666015625,-1.5325927734375,7.8497314453125
2021-09-22 21:07:07.262350,0.0283203125,0.0166015625,0.990234375,1.0821533203125,-1.549072265625,7.8662109375
2021-09-22 21:07:07.272722,0.0283203125,0.021484375,0.990234375,1.0931396484375,-1.571044921875,7.8826904296875
2021-09-22 21:07:07.282436,0.029296875,0.025390625,0.98974609375,1.0986328125,-1.5875244140625,7.8936767578125
2021-09-22 21:07:07.292345,0.0302734375,0.02734375,0.9853515625,1.1041259765625,-1.5985107421875,7.9046630859375
2021-09-22 21:07:07.302210,0.02978515625,0.02734375,0.984375,1.109619140625,-1.614990234375,7.9156494140625
2021-09-22 21:07:07.312278,0.02734375,0.0302734375,0.98291015625,1.1151123046875,-1.6204833984375,7.921142578125
2021-09-22 21:07:07.322222,0.02587890625,0.02783203125,0.98681640625,1.1151123046875,-1.6259765625,7.921142578125
2021-09-22 21:07:07.332234,0.02685546875,0.02978515625,0.9873046875,1.109619140625,-1.6314697265625,7.921142578125
2021-09-22 21:07:07.342107,0.02392578125,0.03076171875,0.98974609375,1.1041259765625,-1.6314697265625,7.9156494140625
2021-09-22 21:07:07.352206,0.0244140625,0.03125,0.9931640625,1.087646484375,-1.6314697265625,7.9046630859375
2021-09-22 21:07:07.362100,0.02783203125,0.02783203125,0.99755859375,1.065673828125,-1.6259765625,7.8826904296875
2021-09-22 21:07:07.372011,0.029296875,0.0244140625,0.9951171875,1.03271484375,-1.6204833984375,7.8662109375
2021-09-22 21:07:07.382015,0.02783203125,0.02099609375,1.0,0.9942626953125,-1.6094970703125,7.8387451171875
2021-09-22 21:07:07.392047,0.03125,0.015625,0.99853515625,0.94482421875,-1.593017578125,7.811279296875
2021-09-22 21:07:07.401960,0.03369140625,0.01416015625,0.99853515625,0.8953857421875,-1.58203125,7.789306640625
2021-09-22 21:07:07.411873,0.0302734375,0.00927734375,0.9990234375,0.845947265625,-1.5655517578125,7.7618408203125
2021-09-22 21:07:07.421798,0.02587890625,0.00390625,1.00390625,0.791015625,-1.549072265625,7.734375
2021-09-22 21:07:07.432104,0.0234375,-0.00341796875,1.01220703125,0.736083984375,-1.527099609375,7.7069091796875
2021-09-22 21:07:07.441878,0.02001953125,-0.00244140625,1.0185546875,0.6756591796875,-1.505126953125,7.6739501953125
2021-09-22 21:07:07.451936,0.02197265625,-0.0146484375,1.02734375,0.615234375,-1.4886474609375,7.646484375
2021-09-22 21:07:07.461818,0.0185546875,-0.01220703125,1.03076171875,0.5548095703125,-1.4666748046875,7.6080322265625
2021-09-22 21:07:07.471743,0.0146484375,-0.0078125,1.0283203125,0.5108642578125,-1.4447021484375,7.569580078125
2021-09-22 21:07:07.481652,0.01123046875,-0.00537109375,1.021484375,0.4833984375,-1.4227294921875,7.525634765625
2021-09-22 21:07:07.491884,0.009765625,0.00146484375,1.01806640625,0.4779052734375,-1.395263671875,7.4761962890625
2021-09-22 21:07:07.501728,0.00830078125,0.0146484375,1.01513671875,0.4998779296875,-1.3677978515625,7.4267578125
2021-09-22 21:07:07.511633,0.00927734375,0.02685546875,1.01171875,0.54931640625,-1.329345703125,7.371826171875
2021-09-22 21:07:07.521561,0.01123046875,0.03369140625,1.00244140625,0.615234375,-1.2908935546875,7.327880859375
2021-09-22 21:07:07.531447,0.01318359375,0.03759765625,1.00048828125,0.703125,-1.241455078125,7.2784423828125
2021-09-22 21:07:07.541693,0.0126953125,0.04638671875,1.00048828125,0.7965087890625,-1.1920166015625,7.239990234375
2021-09-22 21:07:07.551528,0.01025390625,0.04736328125,1.00390625,0.889892578125,-1.131591796875,7.20703125
2021-09-22 21:07:07.561413,0.00927734375,0.04296875,1.0048828125,0.9722900390625,-1.065673828125,7.1795654296875
2021-09-22 21:07:07.571371,0.00634765625,0.04296875,1.0068359375,1.043701171875,-0.9942626953125,7.152099609375
2021-09-22 21:07:07.581485,0.00048828125,0.0458984375,1.00390625,1.0986328125,-0.911865234375,7.1246337890625
2021-09-22 21:07:07.592000,-0.0029296875,0.0517578125,1.00048828125,1.142578125,-0.823974609375,7.0916748046875
2021-09-22 21:07:07.601399,-0.00390625,0.0576171875,0.99560546875,1.1700439453125,-0.7305908203125,7.05322265625
2021-09-22 21:07:07.611234,-0.00390625,0.06005859375,0.9892578125,1.1865234375,-0.63720703125,7.00927734375
2021-09-22 21:07:07.621122,-0.00390625,0.0615234375,0.99072265625,1.197509765625,-0.538330078125,6.954345703125
2021-09-22 21:07:07.631260,0.0,0.05419921875,0.98583984375,1.197509765625,-0.439453125,6.888427734375
2021-09-22 21:07:07.640494,0.0009765625,0.0478515625,0.99169921875,1.1865234375,-0.340576171875,6.822509765625
2021-09-22 21:07:07.651142,0.00390625,0.03955078125,0.994140625,1.1700439453125,-0.24169921875,6.74560546875
2021-09-22 21:07:07.661254,0.0029296875,0.03466796875,0.99951171875,1.1480712890625,-0.142822265625,6.668701171875
2021-09-22 21:07:07.671115,0.001953125,0.02880859375,1.00146484375,1.1151123046875,-0.0439453125,6.5863037109375
2021-09-22 21:07:07.681028,0.005859375,0.0283203125,1.00146484375,1.087646484375,0.0439453125,6.50390625
2021-09-22 21:07:07.690933,0.00439453125,0.0322265625,1.00439453125,1.0711669921875,0.1318359375,6.4215087890625
2021-09-22 21:07:07.701030,0.0048828125,0.0341796875,0.99462890625,1.0601806640625,0.2142333984375,6.3446044921875
2021-09-22 21:07:07.711018,0.00439453125,0.03173828125,1.00048828125,1.0601806640625,0.296630859375,6.26220703125
2021-09-22 21:07:07.720882,0.00341796875,0.03173828125,0.99755859375,1.0711669921875,0.37353515625,6.185302734375
2021-09-22 21:07:07.730823,0.009765625,0.029296875,0.99951171875,1.0931396484375,0.439453125,6.1138916015625
2021-09-22 21:07:07.740903,0.01171875,0.02685546875,0.99560546875,1.12060546875,0.50537109375,6.04248046875
2021-09-22 21:07:07.750793,0.00830078125,0.02294921875,0.99560546875,1.16455078125,0.560302734375,5.987548828125
2021-09-22 21:07:07.760814,0.00634765625,0.02197265625,0.99853515625,1.2139892578125,0.615234375,5.9381103515625
2021-09-22 21:07:07.770708,0.0068359375,0.0224609375,1.00439453125,1.2689208984375,0.6591796875,5.899658203125
2021-09-22 21:07:07.780821,0.00048828125,0.02587890625,1.00732421875,1.329345703125,0.703125,5.86669921875
2021-09-22 21:07:07.790690,-0.00146484375,0.0283203125,1.00537109375,1.3897705078125,0.736083984375,5.8447265625
2021-09-22 21:07:07.800615,-0.001953125,0.03271484375,0.99951171875,1.4556884765625,0.7635498046875,5.833740234375
2021-09-22 21:07:07.810678,-0.005859375,0.03369140625,0.9990234375,1.5216064453125,0.791015625,5.8282470703125
2021-09-22 21:07:07.820682,-0.00634765625,0.0322265625,0.99169921875,1.5875244140625,0.8074951171875,5.8282470703125
2021-09-22 21:07:07.830597,-0.00732421875,0.02685546875,0.99658203125,1.6534423828125,0.8184814453125,5.833740234375
2021-09-22 21:07:07.840480,-0.00341796875,0.01806640625,1.0029296875,1.7138671875,0.81298828125,5.8447265625
2021-09-22 21:07:07.850594,-0.00244140625,0.0078125,1.00341796875,1.7578125,0.802001953125,5.855712890625
2021-09-22 21:07:07.860583,-0.00732421875,0.00732421875,1.0029296875,1.7962646484375,0.7855224609375,5.86669921875
2021-09-22 21:07:07.870522,-0.01123046875,0.00341796875,1.0029296875,1.8292236328125,0.7635498046875,5.877685546875
2021-09-22 21:07:07.880385,-0.0166015625,0.00634765625,1.0,1.856689453125,0.7305908203125,5.8831787109375
2021-09-22 21:07:07.890268,-0.0205078125,0.0078125,0.99365234375,1.8841552734375,0.6976318359375,5.888671875
2021-09-22 21:07:07.900375,-0.02001953125,0.0029296875,0.99462890625,1.9281005859375,0.6591796875,5.8831787109375
2021-09-22 21:07:07.910308,-0.01806640625,0.00341796875,0.99169921875,1.9775390625,0.615234375,5.8721923828125
2021-09-22 21:07:07.920334,-0.01953125,0.005859375,0.9912109375,2.0379638671875,0.5657958984375,5.855712890625
2021-09-22 21:07:07.930326,-0.01318359375,0.00537109375,0.99609375,2.1038818359375,0.5108642578125,5.833740234375
2021-09-22 21:07:07.940285,-0.01416015625,0.0048828125,0.99658203125,2.164306640625,0.4559326171875,5.8172607421875
2021-09-22 21:07:07.950156,-0.013671875,0.00634765625,0.99951171875,2.2247314453125,0.4010009765625,5.7952880859375
2021-09-22 21:07:07.960070,-0.0126953125,0.00927734375,0.9912109375,2.274169921875,0.3460693359375,5.7843017578125
2021-09-22 21:07:07.970168,-0.01318359375,0.01513671875,0.99072265625,2.318115234375,0.2911376953125,5.767822265625
2021-09-22 21:07:07.980193,-0.01318359375,0.02099609375,0.9814453125,2.3675537109375,0.24169921875,5.7568359375
2021-09-22 21:07:07.990042,-0.01123046875,0.02392578125,0.97705078125,2.4114990234375,0.186767578125,5.7513427734375
2021-09-22 21:07:07.999962,-0.01123046875,0.02490234375,0.974609375,2.4554443359375,0.142822265625,5.745849609375
2021-09-22 21:07:08.010034,-0.00927734375,0.02734375,0.9755859375,2.5048828125,0.0933837890625,5.745849609375
2021-09-22 21:07:08.020117,-0.0078125,0.025390625,0.97705078125,2.548828125,0.054931640625,5.7568359375
2021-09-22 21:07:08.029909,-0.00244140625,0.0244140625,0.97802734375,2.5927734375,0.010986328125,5.767822265625
2021-09-22 21:07:08.039992,0.001953125,0.0263671875,0.9775390625,2.6312255859375,-0.0164794921875,5.7952880859375
2021-09-22 21:07:08.049734,0.00390625,0.0302734375,0.97900390625,2.669677734375,-0.0494384765625,5.8282470703125
2021-09-22 21:07:08.059824,0.00537109375,0.03369140625,0.98046875,2.7081298828125,-0.0714111328125,5.86669921875
2021-09-22 21:07:08.069723,0.00341796875,0.0380859375,0.98095703125,2.74658203125,-0.0933837890625,5.9161376953125
2021-09-22 21:07:08.079925,0.00537109375,0.0400390625,0.9765625,2.7850341796875,-0.10986328125,5.9710693359375
2021-09-22 21:07:08.090316,0.00537109375,0.0419921875,0.978515625,2.8179931640625,-0.120849609375,6.031494140625
2021-09-22 21:07:08.099729,0.00537109375,0.0439453125,0.9853515625,2.845458984375,-0.1373291015625,6.0919189453125
2021-09-22 21:07:08.109587,0.02978515625,0.04345703125,1.01318359375,2.8729248046875,-0.164794921875,6.15234375
2021-09-22 21:07:08.119524,-0.03173828125,0.05126953125,1.1611328125,2.900390625,-0.1593017578125,6.2567138671875
2021-09-22 21:07:08.129813,-0.37451171875,0.0458984375,0.68359375,2.999267578125,0.0823974609375,6.4544677734375
2021-09-22 21:07:08.139589,-0.1943359375,0.03125,0.8642578125,3.065185546875,0.2142333984375,6.6357421875
2021-09-22 21:07:08.149509,0.06884765625,0.08740234375,1.33203125,3.109130859375,0.28564453125,6.712646484375
2021-09-22 21:07:08.159396,0.0458984375,-0.06103515625,0.71630859375,3.1695556640625,0.3021240234375,6.767578125
2021-09-22 21:07:08.169464,0.08544921875,-0.044921875,1.0234375,3.2080078125,0.3131103515625,6.8719482421875
2021-09-22 21:07:08.179343,0.1865234375,-0.025390625,1.05224609375,3.22998046875,0.3076171875,7.0587158203125
2021-09-22 21:07:08.189414,0.12890625,0.06640625,1.1298828125,3.175048828125,0.2801513671875,7.31689453125
2021-09-22 21:07:08.199238,0.01416015625,0.13720703125,0.89697265625,3.1146240234375,0.2581787109375,7.591552734375
2021-09-22 21:07:08.209348,-0.01904296875,0.2373046875,1.0458984375,3.076171875,0.2197265625,7.877197265625
2021-09-22 21:07:08.219238,-0.06396484375,0.02734375,0.9345703125,3.0487060546875,0.1702880859375,8.1298828125
2021-09-22 21:07:08.229186,-0.060546875,-0.0107421875,1.1552734375,3.0047607421875,0.19775390625,8.23974609375
2021-09-22 21:07:08.239462,-0.01904296875,0.12939453125,1.06005859375,2.9608154296875,0.2362060546875,8.1683349609375
2021-09-22 21:07:08.249274,-0.01416015625,0.099609375,0.8115234375,2.933349609375,0.3240966796875,7.965087890625
2021-09-22 21:07:08.259170,0.15625,0.05517578125,0.96826171875,2.8564453125,0.384521484375,7.646484375
2021-09-22 21:07:08.269066,0.22705078125,0.07958984375,1.33544921875,2.823486328125,0.4888916015625,7.2344970703125
2021-09-22 21:07:08.279169,0.072265625,0.05810546875,1.10791015625,2.9388427734375,0.5328369140625,6.8060302734375
2021-09-22 21:07:08.289023,0.02880859375,0.08984375,0.8564453125,3.1201171875,0.538330078125,6.3720703125
2021-09-22 21:07:08.299048,-0.009765625,0.1240234375,1.07763671875,3.251953125,0.6646728515625,5.9710693359375
2021-09-22 21:07:08.308922,0.05419921875,0.07958984375,0.78564453125,3.372802734375,0.7305908203125,5.6744384765625
2021-09-22 21:07:08.318851,0.08544921875,0.1201171875,0.9287109375,3.4112548828125,0.802001953125,5.44921875
2021-09-22 21:07:08.328980,0.072265625,0.08740234375,1.06787109375,3.460693359375,0.90087890625,5.2294921875
2021-09-22 21:07:08.338880,0.03173828125,0.076171875,0.83447265625,3.526611328125,0.98876953125,5.0152587890625
2021-09-22 21:07:08.348950,-0.00732421875,0.107421875,0.9609375,3.5760498046875,1.131591796875,4.81201171875
2021-09-22 21:07:08.358934,-0.05908203125,0.06884765625,0.97998046875,3.636474609375,1.318359375,4.669189453125
2021-09-22 21:07:08.368796,-0.0537109375,0.09375,1.03173828125,3.71337890625,1.5545654296875,4.5977783203125
2021-09-22 21:07:08.378721,0.00244140625,0.06640625,1.025390625,3.7628173828125,1.7962646484375,4.581298828125
2021-09-22 21:07:08.388807,0.0068359375,0.07763671875,1.015625,3.768310546875,2.0489501953125,4.6197509765625
2021-09-22 21:07:08.398782,-0.07958984375,0.17626953125,1.19140625,3.6639404296875,2.26318359375,4.7296142578125
2021-09-22 21:07:08.408721,-0.08544921875,0.0439453125,0.91552734375,3.5540771484375,2.449951171875,4.9163818359375
2021-09-22 21:07:08.418605,-0.08349609375,0.099609375,1.06787109375,3.4552001953125,2.6861572265625,5.1361083984375
2021-09-22 21:07:08.428505,-0.11865234375,0.05078125,0.998046875,3.4222412109375,2.9278564453125,5.38330078125
2021-09-22 21:07:08.438558,-0.10546875,0.04931640625,1.22265625,3.4442138671875,3.1475830078125,5.7073974609375
2021-09-22 21:07:08.448484,-0.0859375,0.05810546875,0.87255859375,3.5430908203125,3.372802734375,6.1138916015625
2021-09-22 21:07:08.458666,-0.076171875,0.03466796875,1.05029296875,3.658447265625,3.526611328125,6.5203857421875
2021-09-22 21:07:08.468422,-0.09326171875,0.02587890625,0.90087890625,3.8177490234375,3.6639404296875,6.8499755859375
2021-09-22 21:07:08.478521,-0.14404296875,0.02783203125,0.962890625,4.0045166015625,3.8287353515625,7.05322265625
2021-09-22 21:07:08.488366,-0.1201171875,0.01025390625,0.98486328125,4.2022705078125,3.97705078125,7.152099609375
2021-09-22 21:07:08.498260,-0.1376953125,0.03515625,0.8720703125,4.41650390625,4.130859375,7.174072265625
2021-09-22 21:07:08.508414,-0.08056640625,0.064453125,0.8876953125,4.5977783203125,4.21875,7.14111328125
2021-09-22 21:07:08.518381,-0.099609375,0.02001953125,0.9736328125,4.757080078125,4.2681884765625,7.1026611328125
2021-09-22 21:07:08.528270,-0.10205078125,0.07373046875,1.08935546875,4.954833984375,4.2791748046875,7.05322265625
2021-09-22 21:07:08.538177,-0.11376953125,0.0908203125,1.0146484375,5.1800537109375,4.273681640625,6.9708251953125
2021-09-22 21:07:08.548104,-0.12158203125,0.09130859375,0.98388671875,5.3887939453125,4.273681640625,6.83349609375
2021-09-22 21:07:08.558146,-0.08203125,0.0908203125,0.94189453125,5.55908203125,4.2462158203125,6.6192626953125
2021-09-22 21:07:08.568153,-0.03759765625,0.10302734375,0.9794921875,5.679931640625,4.19677734375,6.3006591796875
2021-09-22 21:07:08.578024,0.0078125,0.13330078125,0.99267578125,5.745849609375,4.1363525390625,5.899658203125
2021-09-22 21:07:08.588695,-0.052734375,0.19873046875,1.16015625,5.789794921875,4.1033935546875,5.438232421875
2021-09-22 21:07:08.598029,-0.09716796875,0.0341796875,1.12353515625,5.877685546875,4.010009765625,4.9273681640625
2021-09-22 21:07:08.607967,-0.0654296875,0.1142578125,0.8662109375,5.9326171875,3.922119140625,4.3560791015625
2021-09-22 21:07:08.618037,0.0673828125,0.12744140625,0.998046875,5.86669921875,3.900146484375,3.7408447265625
2021-09-22 21:07:08.627989,0.02978515625,0.2109375,0.7666015625,5.789794921875,3.900146484375,3.14208984375
2021-09-22 21:07:08.637877,-0.06494140625,0.12939453125,0.85400390625,5.712890625,3.9056396484375,2.6092529296875
2021-09-22 21:07:08.647830,-0.13427734375,0.1123046875,0.9091796875,5.635986328125,3.9715576171875,2.164306640625
2021-09-22 21:07:08.657750,-0.08056640625,0.216796875,0.83740234375,5.526123046875,4.053955078125,1.845703125
2021-09-22 21:07:08.667629,0.01513671875,0.1064453125,0.88134765625,5.33935546875,4.10888671875,1.6644287109375
2021-09-22 21:07:08.677886,-0.001953125,0.0751953125,0.85595703125,5.185546875,4.163818359375,1.5765380859375
2021-09-22 21:07:08.687688,-0.05615234375,0.0244140625,0.89111328125,5.0372314453125,4.21875,1.494140625
2021-09-22 21:07:08.697589,-0.08984375,0.06103515625,0.89013671875,4.8779296875,4.3121337890625,1.417236328125
2021-09-22 21:07:08.707519,-0.1318359375,0.005859375,0.93359375,4.74609375,4.471435546875,1.4007568359375
2021-09-22 21:07:08.717587,-0.09619140625,0.03271484375,1.00390625,4.68017578125,4.6417236328125,1.4447021484375
2021-09-22 21:07:08.727665,-0.0673828125,0.02734375,1.041015625,4.669189453125,4.8175048828125,1.5216064453125
2021-09-22 21:07:08.737527,-0.083984375,0.01513671875,0.88916015625,4.6527099609375,5.020751953125,1.64794921875
2021-09-22 21:07:08.747530,-0.1455078125,0.1416015625,1.2880859375,4.5538330078125,5.1580810546875,1.845703125
2021-09-22 21:07:08.757496,-0.1533203125,0.009765625,0.93212890625,4.449462890625,5.262451171875,2.1368408203125
2021-09-22 21:07:08.767359,-0.13623046875,0.05419921875,1.02685546875,4.339599609375,5.4107666015625,2.4609375
2021-09-22 21:07:08.777492,-0.13720703125,0.0439453125,1.0341796875,4.28466796875,5.537109375,2.8179931640625
2021-09-22 21:07:08.787481,-0.1640625,0.01611328125,1.2490234375,4.3011474609375,5.64697265625,3.2354736328125
2021-09-22 21:07:08.797332,-0.13330078125,0.046875,0.85498046875,4.3780517578125,5.7623291015625,3.7353515625
2021-09-22 21:07:08.807234,-0.11962890625,0.05419921875,1.06005859375,4.471435546875,5.80078125,4.24072265625
2021-09-22 21:07:08.817157,-0.11181640625,0.05419921875,0.935546875,4.59228515625,5.8062744140625,4.6856689453125
2021-09-22 21:07:08.827243,-0.1787109375,0.0634765625,0.94384765625,4.7406005859375,5.8282470703125,5.009765625
2021-09-22 21:07:08.837260,-0.16650390625,0.0361328125,0.95458984375,4.888916015625,5.8392333984375,5.2294921875
2021-09-22 21:07:08.847144,-0.14990234375,0.08251953125,0.89990234375,5.042724609375,5.8392333984375,5.38330078125
2021-09-22 21:07:08.856995,-0.0947265625,0.0908203125,0.87255859375,5.152587890625,5.7733154296875,5.4876708984375
2021-09-22 21:07:08.867116,-0.11572265625,0.0439453125,0.95166015625,5.2239990234375,5.6634521484375,5.5865478515625
2021-09-22 21:07:08.876993,-0.09375,0.10302734375,1.08203125,5.328369140625,5.504150390625,5.6854248046875
2021-09-22 21:07:08.887052,-0.10302734375,0.1240234375,1.0263671875,5.42724609375,5.328369140625,5.7513427734375
2021-09-22 21:07:08.896895,-0.119140625,0.11279296875,1.0068359375,5.504150390625,5.1580810546875,5.7623291015625
2021-09-22 21:07:08.906979,-0.0849609375,0.12353515625,0.931640625,5.5316162109375,4.9603271484375,5.69091796875
2021-09-22 21:07:08.916905,-0.03759765625,0.1201171875,0.994140625,5.4876708984375,4.7406005859375,5.5206298828125
2021-09-22 21:07:08.926807,0.01953125,0.13671875,0.98486328125,5.38330078125,4.4989013671875,5.2679443359375
2021-09-22 21:07:08.936991,-0.04052734375,0.2021484375,1.11474609375,5.2679443359375,4.295654296875,4.932861328125
2021-09-22 21:07:08.946902,-0.09033203125,0.04296875,1.15771484375,5.20751953125,4.031982421875,4.5538330078125
2021-09-22 21:07:08.956767,-0.07080078125,0.099609375,0.8837890625,5.1361083984375,3.7738037109375,4.097900390625
2021-09-22 21:07:08.966665,0.07958984375,0.1259765625,1.04150390625,4.9658203125,3.570556640625,3.58154296875
2021-09-22 21:07:08.976756,0.0458984375,0.18212890625,0.79541015625,4.7845458984375,3.3837890625,3.065185546875
2021-09-22 21:07:08.986862,-0.05615234375,0.09814453125,0.892578125,4.6142578125,3.2080078125,2.5982666015625
2021-09-22 21:07:08.996712,-0.10986328125,0.08837890625,0.921875,4.471435546875,3.0816650390625,2.21923828125
2021-09-22 21:07:09.006641,-0.056640625,0.21240234375,0.908203125,4.3121337890625,2.98828125,1.966552734375
2021-09-22 21:07:09.016687,0.03369140625,0.0830078125,0.9248046875,4.0924072265625,2.8564453125,1.845703125
2021-09-22 21:07:09.026659,0.0185546875,0.0771484375,0.89501953125,3.9111328125,2.735595703125,1.82373046875
2021-09-22 21:07:09.036489,-0.029296875,0.01708984375,0.93896484375,3.7408447265625,2.625732421875,1.8017578125
2021-09-22 21:07:09.046555,-0.06787109375,0.04248046875,0.89697265625,3.5650634765625,2.5543212890625,1.77978515625
2021-09-22 21:07:09.056488,-0.1123046875,-0.00146484375,0.9658203125,3.416748046875,2.5543212890625,1.812744140625
2021-09-22 21:07:09.066398,-0.06982421875,0.01708984375,1.03466796875,3.3343505859375,2.581787109375,1.9061279296875
2021-09-22 21:07:09.076531,-0.033203125,0.01953125,1.05908203125,3.306884765625,2.6202392578125,2.032470703125
2021-09-22 21:07:09.086984,-0.03564453125,-0.02685546875,0.89404296875,3.2574462890625,2.6751708984375,2.197265625
2021-09-22 21:07:09.096332,-0.09423828125,0.1328125,1.302734375,3.14208984375,2.6806640625,2.43896484375
2021-09-22 21:07:09.106231,-0.10986328125,-0.00146484375,0.9833984375,3.01025390625,2.6531982421875,2.7685546875
2021-09-22 21:07:09.116311,-0.09716796875,0.0244140625,1.05419921875,2.8564453125,2.6806640625,3.1256103515625
2021-09-22 21:07:09.126196,-0.091796875,0.02490234375,1.0673828125,2.757568359375,2.691650390625,3.504638671875
2021-09-22 21:07:09.136281,-0.11279296875,-0.005859375,1.2353515625,2.7410888671875,2.70263671875,3.9605712890625
2021-09-22 21:07:09.146297,-0.0771484375,0.04638671875,0.89404296875,2.7960205078125,2.713623046875,4.482421875
2021-09-22 21:07:09.156027,-0.06396484375,0.041015625,1.07275390625,2.8619384765625,2.647705078125,5.0152587890625
2021-09-22 21:07:09.166055,-0.05126953125,0.041015625,0.92724609375,2.96630859375,2.537841796875,5.4931640625
2021-09-22 21:07:09.176014,-0.1044921875,0.0498046875,0.95654296875,3.0926513671875,2.449951171875,5.8502197265625
2021-09-22 21:07:09.186099,-0.103515625,-0.0009765625,0.96923828125,3.218994140625,2.3565673828125,6.1138916015625
2021-09-22 21:07:09.196080,-0.08740234375,0.04736328125,0.91650390625,3.36181640625,2.2576904296875,6.3006591796875
2021-09-22 21:07:09.205956,-0.0166015625,0.06396484375,0.87060546875,3.4716796875,2.08740234375,6.4434814453125
2021-09-22 21:07:09.215848,-0.03857421875,0.005859375,0.9599609375,3.5321044921875,1.8841552734375,6.5753173828125
2021-09-22 21:07:09.225778,-0.02685546875,0.05859375,1.11083984375,3.614501953125,1.6534423828125,6.712646484375
2021-09-22 21:07:09.235874,-0.03759765625,0.07861328125,1.04052734375,3.69140625,1.40625,6.8115234375
2021-09-22 21:07:09.245950,-0.05078125,0.0703125,1.03466796875,3.746337890625,1.1700439453125,6.85546875
2021-09-22 21:07:09.255828,-0.0126953125,0.07080078125,0.955078125,3.7518310546875,0.911865234375,6.8115234375
2021-09-22 21:07:09.265881,0.04052734375,0.0732421875,1.02587890625,3.702392578125,0.6317138671875,6.6632080078125
2021-09-22 21:07:09.275753,0.0947265625,0.08056640625,0.98583984375,3.6090087890625,0.3350830078125,6.4324951171875
2021-09-22 21:07:09.285654,0.04296875,0.1533203125,1.080078125,3.526611328125,0.087890625,6.1138916015625
2021-09-22 21:07:09.295566,-0.005859375,0.0,1.2080078125,3.4991455078125,-0.19775390625,5.745849609375
2021-09-22 21:07:09.305290,0.01953125,0.0537109375,0.9033203125,3.482666015625,-0.4998779296875,5.3118896484375
2021-09-22 21:07:09.315650,0.16455078125,0.0771484375,1.06103515625,3.3782958984375,-0.7305908203125,4.81201171875
2021-09-22 21:07:09.325550,0.146484375,0.16015625,0.810546875,3.2684326171875,-0.9503173828125,4.3011474609375
2021-09-22 21:07:09.335499,0.04443359375,0.06396484375,0.90380859375,3.153076171875,-1.153564453125,3.84521484375
2021-09-22 21:07:09.345523,-0.01171875,0.05859375,0.90966796875,3.0596923828125,-1.2799072265625,3.482666015625
2021-09-22 21:07:09.355446,0.03662109375,0.17138671875,0.92041015625,2.9278564453125,-1.3568115234375,3.2354736328125
2021-09-22 21:07:09.365500,0.1201171875,0.04833984375,0.9287109375,2.7301025390625,-1.4501953125,3.1256103515625
2021-09-22 21:07:09.375338,0.12060546875,0.0625,0.9296875,2.5653076171875,-1.5325927734375,3.1146240234375
2021-09-22 21:07:09.385390,0.0703125,-0.01611328125,0.9052734375,2.4114990234375,-1.593017578125,3.1036376953125
2021-09-22 21:07:09.395291,0.02490234375,0.01416015625,0.875,2.26318359375,-1.614990234375,3.0926513671875
2021-09-22 21:07:09.405202,-0.0166015625,-0.0234375,0.962890625,2.1368408203125,-1.5380859375,3.1146240234375
2021-09-22 21:07:09.415552,0.01025390625,-0.00732421875,1.04638671875,2.0819091796875,-1.4227294921875,3.197021484375
2021-09-22 21:07:09.425311,0.052734375,0.00146484375,1.03515625,2.1038818359375,-1.285400390625,3.306884765625
2021-09-22 21:07:09.435172,0.05908203125,-0.0693359375,0.8681640625,2.1038818359375,-1.131591796875,3.44970703125
2021-09-22 21:07:09.445057,0.00732421875,0.10986328125,1.26611328125,2.0709228515625,-0.98876953125,3.658447265625
2021-09-22 21:07:09.455158,-0.025390625,-0.001953125,0.98876953125,1.99951171875,-0.889892578125,3.9495849609375
2021-09-22 21:07:09.465126,-0.04052734375,-0.00927734375,1.0380859375,1.8951416015625,-0.7196044921875,4.273681640625
2021-09-22 21:07:09.475103,-0.04052734375,-0.00927734375,1.0380859375,1.790771484375,-0.54931640625,4.59228515625
2021-09-22 21:07:09.485072,-0.0234375,0.00048828125,1.04638671875,1.724853515625,-0.3900146484375,4.9383544921875
2021-09-22 21:07:09.494990,-0.037109375,-0.01953125,1.22314453125,1.7303466796875,-0.2032470703125,5.3558349609375
2021-09-22 21:07:09.504966,0.00927734375,0.0087890625,0.8896484375,1.7742919921875,-0.0439453125,5.8392333984375
2021-09-22 21:07:09.514999,0.00390625,0.01708984375,1.0830078125,1.834716796875,0.0604248046875,6.328125
2021-09-22 21:07:09.525061,-0.033203125,0.0068359375,0.94384765625,1.9171142578125,0.1483154296875,6.756591796875
2021-09-22 21:07:09.534885,-0.05029296875,0.03466796875,0.93115234375,2.010498046875,0.2362060546875,7.086181640625
2021-09-22 21:07:09.544793,-0.037109375,-0.03076171875,0.9619140625,2.0928955078125,0.318603515625,7.294921875
2021-09-22 21:07:09.554904,-0.044921875,0.03076171875,0.9365234375,2.2027587890625,0.4010009765625,7.415771484375
2021-09-22 21:07:09.564829,0.03759765625,0.04345703125,0.8154296875,2.2906494140625,0.3955078125,7.49267578125
2021-09-22 21:07:09.574939,0.01220703125,-0.0205078125,0.953125,2.3236083984375,0.362548828125,7.5531005859375
2021-09-22 21:07:09.585453,0.0205078125,0.044921875,1.09619140625,2.3895263671875,0.296630859375,7.6190185546875
2021-09-22 21:07:09.594593,0.001953125,0.05029296875,0.98095703125,2.4664306640625,0.208740234375,7.646484375
2021-09-22 21:07:09.604708,-0.02880859375,0.05810546875,1.00048828125,2.5213623046875,0.1263427734375,7.613525390625
2021-09-22 21:07:09.614614,0.00537109375,0.0546875,0.9443359375,2.5433349609375,0.0164794921875,7.4871826171875
2021-09-22 21:07:09.624488,0.05126953125,0.060546875,1.02099609375,2.5103759765625,-0.1153564453125,7.2509765625
2021-09-22 21:07:09.634597,0.1044921875,0.0615234375,0.98486328125,2.4224853515625,-0.274658203125,6.92138671875
2021-09-22 21:07:09.644568,0.05712890625,0.1533203125,1.04931640625,2.340087890625,-0.3900146484375,6.4984130859375
2021-09-22 21:07:09.654513,0.0009765625,-0.00048828125,1.212890625,2.3016357421875,-0.54931640625,6.0205078125
2021-09-22 21:07:09.664545,0.01708984375,0.03466796875,0.8916015625,2.252197265625,-0.736083984375,5.47119140625
2021-09-22 21:07:09.674271,0.1630859375,0.07861328125,1.06982421875,2.1258544921875,-0.85693359375,4.844970703125
2021-09-22 21:07:09.684380,0.1376953125,0.15087890625,0.82177734375,1.9720458984375,-0.9613037109375,4.19677734375
2021-09-22 21:07:09.694444,0.03564453125,0.05810546875,0.90673828125,1.82373046875,-1.0546875,3.592529296875
2021-09-22 21:07:09.704241,-0.01806640625,0.041015625,0.9228515625,1.69189453125,-1.07666015625,3.076171875
2021-09-22 21:07:09.714161,0.037109375,0.1689453125,0.9326171875,1.5325927734375,-1.0601806640625,2.6751708984375
2021-09-22 21:07:09.724253,0.11572265625,0.04833984375,0.94580078125,1.3238525390625,-1.0546875,2.4114990234375
2021-09-22 21:07:09.734183,0.09375,0.07080078125,0.947265625,1.16455078125,-1.0272216796875,2.252197265625
2021-09-22 21:07:09.744194,0.056640625,-0.01123046875,0.9296875,1.021728515625,-0.9832763671875,2.109375
2021-09-22 21:07:09.754053,0.0166015625,0.0205078125,0.89404296875,0.8843994140625,-0.90087890625,1.9610595703125
2021-09-22 21:07:09.764100,-0.0439453125,-0.01416015625,0.96630859375,0.7635498046875,-0.72509765625,1.8511962890625
2021-09-22 21:07:09.774018,-0.01513671875,-0.001953125,1.0791015625,0.703125,-0.5108642578125,1.82373046875
2021-09-22 21:07:09.784137,0.03076171875,0.00341796875,1.095703125,0.6976318359375,-0.2911376953125,1.834716796875
2021-09-22 21:07:09.794194,0.0263671875,-0.09326171875,0.8681640625,0.63720703125,-0.06591796875,1.8896484375
2021-09-22 21:07:09.804016,-0.0185546875,0.1044921875,1.283203125,0.582275390625,0.1483154296875,2.021484375
2021-09-22 21:07:09.813875,-0.05224609375,-0.01025390625,1.07666015625,0.4779052734375,0.3076171875,2.252197265625
2021-09-22 21:07:09.823975,-0.072265625,-0.0224609375,1.04931640625,0.37353515625,0.5328369140625,2.52685546875
2021-09-22 21:07:09.833921,-0.06494140625,-0.00048828125,0.98583984375,0.3240966796875,0.7525634765625,2.8179931640625
2021-09-22 21:07:09.843797,-0.06201171875,-0.05419921875,1.2998046875,0.3570556640625,0.955810546875,3.175048828125
2021-09-22 21:07:09.853862,-0.02294921875,0.0205078125,0.93212890625,0.4833984375,1.142578125,3.603515625
2021-09-22 21:07:09.863708,-0.02685546875,0.0126953125,1.12255859375,0.6427001953125,1.263427734375,4.0374755859375
2021-09-22 21:07:09.873758,-0.0546875,0.0087890625,0.97509765625,0.8624267578125,1.3458251953125,4.41650390625
2021-09-22 21:07:09.883688,-0.06982421875,0.0390625,0.97705078125,1.1041259765625,1.4227294921875,4.6966552734375
2021-09-22 21:07:09.893573,-0.05029296875,-0.02685546875,1.00244140625,1.34033203125,1.483154296875,4.866943359375
2021-09-22 21:07:09.903846,-0.07080078125,0.03125,0.984375,1.6094970703125,1.5380859375,4.94384765625
2021-09-22 21:07:09.913664,-0.00341796875,0.0498046875,0.82568359375,1.8511962890625,1.5106201171875,4.976806640625
2021-09-22 21:07:09.923550,-0.01171875,0.00537109375,0.98974609375,2.0269775390625,1.4501953125,5.0042724609375
2021-09-22 21:07:09.933484,-0.001953125,0.05322265625,1.10791015625,2.2247314453125,1.351318359375,5.03173828125
2021-09-22 21:07:09.943529,-0.02685546875,0.0712890625,1.0087890625,2.4224853515625,1.23046875,5.0262451171875
2021-09-22 21:07:09.953456,-0.0537109375,0.0908203125,0.99951171875,2.6092529296875,1.1260986328125,4.9713134765625
2021-09-22 21:07:09.963442,-0.0244140625,0.08544921875,0.93798828125,2.74658203125,0.999755859375,4.8394775390625
2021-09-22 21:07:09.973313,0.01953125,0.07568359375,0.9951171875,2.8289794921875,0.85693359375,4.5977783203125
2021-09-22 21:07:09.983276,0.080078125,0.09326171875,0.95263671875,2.8729248046875,0.703125,4.273681640625
2021-09-22 21:07:09.993317,0.03076171875,0.18701171875,1.00830078125,2.9168701171875,0.59326171875,3.8726806640625
2021-09-22 21:07:10.003221,-0.02734375,0.0224609375,1.18896484375,2.98828125,0.4669189453125,3.427734375
2021-09-22 21:07:10.013366,-0.01220703125,0.06591796875,0.87451171875,3.065185546875,0.3131103515625,2.9278564453125
2021-09-22 21:07:10.023276,0.1181640625,0.08203125,0.99462890625,3.0322265625,0.24169921875,2.373046875
2021-09-22 21:07:10.033203,0.10546875,0.16796875,0.78515625,2.977294921875,0.2142333984375,1.812744140625
2021-09-22 21:07:10.043140,0.02783203125,0.08447265625,0.82763671875,2.9168701171875,0.19775390625,1.307373046875
2021-09-22 21:07:10.053004,-0.08154296875,0.046875,0.92333984375,2.8564453125,0.2801513671875,0.8843994140625
2021-09-22 21:07:10.063263,-0.041015625,0.16796875,0.798828125,2.801513671875,0.41748046875,0.582275390625
2021-09-22 21:07:10.073092,0.0498046875,0.0634765625,0.888671875,2.6312255859375,0.54931640625,0.4229736328125
2021-09-22 21:07:10.083658,0.0517578125,0.0654296875,0.9140625,2.5103759765625,0.692138671875,0.3680419921875
2021-09-22 21:07:10.092895,0.00048828125,-0.03076171875,0.84521484375,2.4005126953125,0.845947265625,0.3240966796875
2021-09-22 21:07:10.102971,-0.0302734375,0.0146484375,0.88330078125,2.30712890625,1.0162353515625,0.2691650390625
2021-09-22 21:07:10.112936,-0.08203125,-0.04296875,0.90625,2.2247314453125,1.2799072265625,0.2581787109375
2021-09-22 21:07:10.122872,-0.07666015625,-0.02783203125,1.0419921875,2.197265625,1.5765380859375,0.3131103515625
2021-09-22 21:07:10.132895,-0.03369140625,-0.04443359375,1.06884765625,2.2357177734375,1.8731689453125,0.3955078125
2021-09-22 21:07:10.142826,-0.04248046875,-0.109375,0.84912109375,2.2247314453125,2.1917724609375,0.5108642578125
2021-09-22 21:07:10.152768,-0.087890625,0.091796875,1.24560546875,2.2137451171875,2.471923828125,0.6866455078125
2021-09-22 21:07:10.162660,-0.13525390625,-0.00927734375,1.05810546875,2.1533203125,2.70263671875,0.966796875
2021-09-22 21:07:10.172868,-0.1357421875,-0.0029296875,0.986328125,2.0928955078125,2.9718017578125,1.2744140625
2021-09-22 21:07:10.182690,-0.142578125,0.03173828125,0.9765625,2.076416015625,3.2464599609375,1.593017578125
2021-09-22 21:07:10.192613,-0.158203125,-0.04052734375,1.25927734375,2.1368408203125,3.4661865234375,1.9720458984375
2021-09-22 21:07:10.202689,-0.13525390625,0.04248046875,0.88818359375,2.28515625,3.71337890625,2.4224853515625
2021-09-22 21:07:10.212590,-0.12109375,0.02099609375,1.0947265625,2.43896484375,3.8726806640625,2.87841796875
2021-09-22 21:07:10.222656,-0.11181640625,0.02978515625,0.94580078125,2.61474609375,3.9715576171875,3.27392578125
2021-09-22 21:07:10.232479,-0.15576171875,0.0322265625,0.982421875,2.8070068359375,4.0704345703125,3.5595703125
2021-09-22 21:07:10.242386,-0.15771484375,-0.0029296875,0.994140625,2.999267578125,4.1473388671875,3.7353515625
2021-09-22 21:07:10.252482,-0.14453125,0.03759765625,0.96044921875,3.18603515625,4.207763671875,3.8507080078125
2021-09-22 21:07:10.262391,-0.0810546875,0.0634765625,0.8427734375,3.350830078125,4.2022705078125,3.9166259765625
2021-09-22 21:07:10.272466,-0.09326171875,0.013671875,0.9150390625,3.44970703125,4.141845703125,3.9825439453125
2021-09-22 21:07:10.282477,-0.07666015625,0.056640625,1.10400390625,3.570556640625,4.031982421875,4.06494140625
2021-09-22 21:07:10.292393,-0.083984375,0.09423828125,1.013671875,3.6968994140625,3.8946533203125,4.141845703125
2021-09-22 21:07:10.302287,-0.1162109375,0.07470703125,1.0458984375,3.790283203125,3.768310546875,4.1748046875
2021-09-22 21:07:10.312158,-0.09375,0.09521484375,0.923828125,3.8507080078125,3.636474609375,4.1473388671875
2021-09-22 21:07:10.322422,-0.037109375,0.08984375,0.98583984375,3.8507080078125,3.4661865234375,4.0264892578125
2021-09-22 21:07:10.332264,0.02685546875,0.0859375,0.98388671875,3.7847900390625,3.284912109375,3.8287353515625
2021-09-22 21:07:10.342134,-0.021484375,0.18408203125,1.0224609375,3.7353515625,3.1365966796875,3.5595703125
2021-09-22 21:07:10.352244,-0.08544921875,0.0234375,1.212890625,3.7078857421875,2.9608154296875,3.2464599609375
2021-09-22 21:07:10.362101,-0.0625,0.04736328125,0.904296875,3.6968994140625,2.7630615234375,2.87841796875
2021-09-22 21:07:10.371999,0.08203125,0.0625,1.01513671875,3.5870361328125,2.625732421875,2.43896484375
2021-09-22 21:07:10.382090,0.072265625,0.1337890625,0.82763671875,3.460693359375,2.5323486328125,1.9940185546875
2021-09-22 21:07:10.392067,0.001953125,0.05029296875,0.84716796875,3.3453369140625,2.43896484375,1.58203125
2021-09-22 21:07:10.401981,-0.09765625,0.0068359375,0.951171875,3.262939453125,2.4224853515625,1.25244140625
2021-09-22 21:07:10.411876,-0.05615234375,0.14599609375,0.84912109375,3.2135009765625,2.4774169921875,1.0382080078125
2021-09-22 21:07:10.421802,0.0458984375,0.0244140625,0.90966796875,3.065185546875,2.515869140625,0.94482421875
2021-09-22 21:07:10.432058,0.044921875,0.02734375,0.95751953125,2.977294921875,2.57080078125,0.94482421875
2021-09-22 21:07:10.441874,-0.0029296875,-0.05810546875,0.88671875,2.8948974609375,2.6422119140625,0.955810546875
2021-09-22 21:07:10.451900,-0.04833984375,-0.017578125,0.90283203125,2.8070068359375,2.74658203125,0.94482421875
2021-09-22 21:07:10.461844,-0.10205078125,-0.0556640625,0.9384765625,2.713623046875,2.9443359375,0.966796875
2021-09-22 21:07:10.471752,-0.08056640625,-0.0419921875,1.07080078125,2.669677734375,3.1805419921875,1.0491943359375
2021-09-22 21:07:10.481625,-0.0390625,-0.0322265625,1.04736328125,2.6751708984375,3.4222412109375,1.153564453125
2021-09-22 21:07:10.491651,-0.03173828125,-0.103515625,0.81787109375,2.6202392578125,3.66943359375,1.285400390625
2021-09-22 21:07:10.501677,-0.0771484375,0.08837890625,1.22021484375,2.5762939453125,3.900146484375,1.47216796875
2021-09-22 21:07:10.511587,-0.13330078125,0.0185546875,1.05224609375,2.48291015625,4.0814208984375,1.7413330078125
2021-09-22 21:07:10.521521,-0.1337890625,0.01025390625,0.9326171875,2.4005126953125,4.306640625,2.04345703125
2021-09-22 21:07:10.531554,-0.14501953125,0.0283203125,0.9296875,2.340087890625,4.537353515625,2.3565673828125
2021-09-22 21:07:10.541636,-0.1328125,-0.0361328125,1.24951171875,2.373046875,4.7186279296875,2.724609375
2021-09-22 21:07:10.551492,-0.0927734375,0.048828125,0.85986328125,2.48291015625,4.89990234375,3.1640625
2021-09-22 21:07:10.561326,-0.07861328125,0.005859375,1.08447265625,2.5872802734375,4.998779296875,3.62548828125
2021-09-22 21:07:10.571577,-0.0693359375,-0.00732421875,0.9365234375,2.691650390625,5.0372314453125,4.031982421875
2021-09-22 21:07:10.582102,-0.109375,0.00634765625,1.00390625,2.7850341796875,5.07568359375,4.3341064453125
2021-09-22 21:07:10.591310,-0.11572265625,-0.04052734375,0.9794921875,2.845458984375,5.1031494140625,4.5318603515625
2021-09-22 21:07:10.601429,-0.1064453125,-0.017578125,0.99365234375,2.8729248046875,5.1031494140625,4.6527099609375
2021-09-22 21:07:10.611282,-0.03759765625,0.00048828125,0.89501953125,2.823486328125,5.0372314453125,4.7296142578125
2021-09-22 21:07:10.621193,-0.05810546875,-0.041015625,0.9365234375,2.691650390625,4.921875,4.779052734375
2021-09-22 21:07:10.631147,-0.05322265625,-0.02685546875,1.09912109375,2.57080078125,4.74609375,4.8284912109375
2021-09-22 21:07:10.641212,-0.0771484375,0.02099609375,1.037109375,2.4554443359375,4.5538330078125,4.8504638671875
2021-09-22 21:07:10.651211,-0.1240234375,0.01025390625,1.0576171875,2.3455810546875,4.3780517578125,4.8175048828125
2021-09-22 21:07:10.661247,-0.09423828125,0.0576171875,0.94384765625,2.2576904296875,4.19677734375,4.6856689453125
2021-09-22 21:07:10.671160,-0.0263671875,0.03662109375,0.99169921875,2.1533203125,3.9715576171875,4.4384765625
2021-09-22 21:07:10.681047,0.021484375,0.04296875,0.99560546875,2.054443359375,3.7353515625,4.0869140625
2021-09-22 21:07:10.690953,0.00439453125,0.15234375,0.99560546875,2.0050048828125,3.5321044921875,3.6474609375
2021-09-22 21:07:10.701185,-0.046875,-0.0009765625,1.2490234375,2.0050048828125,3.3013916015625,3.1640625
2021-09-22 21:07:10.711044,-0.02978515625,0.02734375,0.974609375,2.0489501953125,3.0377197265625,2.6312255859375
2021-09-22 21:07:10.720898,0.09375,0.0498046875,1.037109375,1.988525390625,2.845458984375,2.032470703125
2021-09-22 21:07:10.731001,0.0888671875,0.1396484375,0.86572265625,1.8951416015625,2.7081298828125,1.4337158203125
2021-09-22 21:07:10.740923,0.0283203125,0.08447265625,0.8583984375,1.8182373046875,2.559814453125,0.90087890625
2021-09-22 21:07:10.750878,-0.09716796875,0.05126953125,1.001953125,1.73583984375,2.5213623046875,0.46142578125
2021-09-22 21:07:10.760811,-0.07080078125,0.17138671875,0.8798828125,1.6534423828125,2.548828125,0.1483154296875
2021-09-22 21:07:10.770705,0.02197265625,0.10205078125,0.89599609375,1.47216796875,2.581787109375,-0.010986328125
2021-09-22 21:07:10.780767,0.04296875,0.0615234375,0.99267578125,1.318359375,2.6312255859375,-0.0604248046875
2021-09-22 21:07:10.790688,-0.0126953125,-0.01513671875,0.849609375,1.1920166015625,2.6861572265625,-0.0823974609375
2021-09-22 21:07:10.800747,-0.06201171875,0.03369140625,0.92333984375,1.087646484375,2.779541015625,-0.1153564453125
2021-09-22 21:07:10.810792,-0.1162109375,0.00634765625,0.91259765625,1.021728515625,2.9608154296875,-0.1153564453125
2021-09-22 21:07:10.820684,-0.111328125,0.033203125,1.0458984375,1.0382080078125,3.197021484375,-0.054931640625
2021-09-22 21:07:10.830564,-0.04833984375,-0.00927734375,1.04736328125,1.12060546875,3.427734375,0.0274658203125
2021-09-22 21:07:10.840600,-0.04833984375,-0.05078125,0.83447265625,1.1810302734375,3.6639404296875,0.1318359375
2021-09-22 21:07:10.850551,-0.10205078125,0.134765625,1.20703125,1.2249755859375,3.8946533203125,0.3076171875
2021-09-22 21:07:10.860478,-0.13916015625,0.04931640625,1.0712890625,1.219482421875,4.053955078125,0.59326171875
2021-09-22 21:07:10.870443,-0.1328125,0.0380859375,0.9462890625,1.20849609375,4.2572021484375,0.933837890625
2021-09-22 21:07:10.880546,-0.09765625,0.08203125,1.048828125,1.2359619140625,4.4439697265625,1.2908935546875
2021-09-22 21:07:10.890394,-0.095703125,0.0029296875,1.34130859375,1.3897705078125,4.537353515625,1.6973876953125
2021-09-22 21:07:10.900447,-0.111328125,0.10009765625,0.970703125,1.6534423828125,4.6307373046875,2.208251953125
2021-09-22 21:07:10.910253,-0.09521484375,0.05078125,0.98193359375,1.9061279296875,4.6417236328125,2.7630615234375
2021-09-22 21:07:10.920448,-0.1123046875,0.03955078125,0.9658203125,2.1258544921875,4.6142578125,3.2794189453125
2021-09-22 21:07:10.930480,-0.09765625,0.06787109375,0.9619140625,2.3236083984375,4.5867919921875,3.69140625
2021-09-22 21:07:10.940204,-0.1103515625,0.0380859375,0.92578125,2.48291015625,4.537353515625,3.9935302734375
2021-09-22 21:07:10.950263,-0.15478515625,0.06298828125,1.04638671875,2.625732421875,4.471435546875,4.2022705078125
2021-09-22 21:07:10.960186,-0.08447265625,0.11376953125,0.79296875,2.74658203125,4.37255859375,4.3560791015625
2021-09-22 21:07:10.970092,-0.0654296875,0.06640625,0.9130859375,2.7520751953125,4.21875,4.4769287109375
2021-09-22 21:07:10.980206,-0.0673828125,0.07177734375,1.06884765625,2.7630615234375,4.02099609375,4.6087646484375
2021-09-22 21:07:10.990198,-0.07861328125,0.12451171875,0.99609375,2.7850341796875,3.8067626953125,4.7076416015625
2021-09-22 21:07:11.000156,-0.09716796875,0.0986328125,1.05810546875,2.7740478515625,3.592529296875,4.7406005859375
2021-09-22 21:07:11.009946,-0.06787109375,0.12255859375,0.939453125,2.7630615234375,3.3782958984375,4.6746826171875
2021-09-22 21:07:11.019872,-0.017578125,0.11865234375,0.99462890625,2.7081298828125,3.1365966796875,4.493408203125
2021-09-22 21:07:11.029990,0.041015625,0.115234375,1.0009765625,2.6202392578125,2.8948974609375,4.2132568359375
2021-09-22 21:07:11.039909,0.02880859375,0.21728515625,0.9921875,2.559814453125,2.669677734375,3.8507080078125
2021-09-22 21:07:11.049971,-0.056640625,0.06689453125,1.24462890625,2.52685546875,2.4444580078125,3.4332275390625
2021-09-22 21:07:11.060192,-0.04296875,0.07568359375,0.9833984375,2.5323486328125,2.186279296875,2.9443359375
2021-09-22 21:07:11.069893,0.0849609375,0.08447265625,1.00537109375,2.43896484375,2.0050048828125,2.3895263671875
2021-09-22 21:07:11.080571,0.1005859375,0.17333984375,0.89501953125,2.3236083984375,1.8731689453125,1.8182373046875
2021-09-22 21:07:11.089685,0.04833984375,0.08544921875,0.86572265625,2.21923828125,1.73583984375,1.3018798828125
2021-09-22 21:07:11.099621,-0.0849609375,0.05615234375,1.0146484375,2.120361328125,1.69189453125,0.8734130859375
2021-09-22 21:07:11.109660,-0.0654296875,0.16845703125,0.88916015625,2.0489501953125,1.724853515625,0.5548095703125
2021-09-22 21:07:11.119724,0.02880859375,0.10986328125,0.91650390625,1.8731689453125,1.7578125,0.384521484375
2021-09-22 21:07:11.129657,0.0458984375,0.07958984375,1.02197265625,1.7413330078125,1.812744140625,0.3240966796875
2021-09-22 21:07:11.139684,-0.00537109375,-0.00927734375,0.8662109375,1.6424560546875,1.878662109375,0.28564453125
2021-09-22 21:07:11.149575,-0.0419921875,0.0283203125,0.94287109375,1.5655517578125,1.966552734375,0.2362060546875
2021-09-22 21:07:11.159462,-0.09326171875,-0.01611328125,0.9345703125,1.51611328125,2.1478271484375,0.2252197265625
2021-09-22 21:07:11.169409,-0.09326171875,-0.0029296875,1.09326171875,1.527099609375,2.384033203125,0.2801513671875
2021-09-22 21:07:11.179467,-0.02783203125,-0.0390625,1.10595703125,1.5985107421875,2.6092529296875,0.362548828125
2021-09-22 21:07:11.189549,-0.02490234375,-0.08984375,0.88134765625,1.658935546875,2.8509521484375,0.472412109375
2021-09-22 21:07:11.199362,-0.076171875,0.08740234375,1.24755859375,1.724853515625,3.087158203125,0.6427001953125
2021-09-22 21:07:11.209244,-0.1025390625,0.10107421875,1.10107421875,1.790771484375,3.2574462890625,0.9228515625
2021-09-22 21:07:11.219415,-0.0390625,0.0283203125,1.1494140625,1.9500732421875,3.394775390625,1.2579345703125
2021-09-22 21:07:11.229316,-0.15771484375,0.01708984375,1.02099609375,2.17529296875,3.53759765625,1.6259765625
2021-09-22 21:07:11.239346,-0.14404296875,-0.015625,1.2373046875,2.4664306640625,3.636474609375,2.0489501953125
2021-09-22 21:07:11.249418,-0.115234375,0.07763671875,0.92333984375,2.7850341796875,3.75732421875,2.559814453125
2021-09-22 21:07:11.259122,-0.0810546875,-0.01171875,0.9931640625,3.0322265625,3.80126953125,3.1256103515625
2021-09-22 21:07:11.269216,-0.0888671875,0.04931640625,0.97265625,3.2958984375,3.812255859375,3.6309814453125
2021-09-22 21:07:11.279162,-0.1015625,-0.1162109375,0.92236328125,3.482666015625,3.80126953125,3.9935302734375
2021-09-22 21:07:11.289067,-0.06494140625,0.03173828125,0.8779296875,3.6639404296875,3.71337890625,4.2132568359375
2021-09-22 21:07:11.299246,-0.01806640625,0.14111328125,1.02001953125,3.8397216796875,3.5540771484375,4.361572265625
2021-09-22 21:07:11.309349,0.029296875,0.04150390625,0.63916015625,3.856201171875,3.2574462890625,4.4879150390625
2021-09-22 21:07:11.318988,-0.0166015625,0.01806640625,0.90478515625,3.768310546875,2.9388427734375,4.59228515625
2021-09-22 21:07:11.328851,-0.04931640625,0.03662109375,0.8828125,3.680419921875,2.52685546875,4.6746826171875
2021-09-22 21:07:11.338962,-0.0595703125,0.08642578125,1.029296875,3.6199951171875,2.0819091796875,4.7186279296875
2021-09-22 21:07:11.348894,-0.09130859375,0.08837890625,0.931640625,3.5980224609375,1.658935546875,4.691162109375
2021-09-22 21:07:11.358773,-0.05810546875,0.11865234375,0.94873046875,3.6199951171875,1.2579345703125,4.5648193359375
2021-09-22 21:07:11.368847,-0.0302734375,0.08349609375,0.9384765625,3.6199951171875,0.8843994140625,4.3341064453125
2021-09-22 21:07:11.378799,0.0576171875,0.060546875,0.95166015625,3.5980224609375,0.516357421875,4.0045166015625
2021-09-22 21:07:11.388746,0.09228515625,0.15869140625,0.97216796875,3.603515625,0.164794921875,3.58154296875
2021-09-22 21:07:11.398644,0.00439453125,0.0126953125,1.27197265625,3.62548828125,-0.1483154296875,3.14208984375
2021-09-22 21:07:11.408743,0.02392578125,0.04248046875,1.0,3.6419677734375,-0.4998779296875,2.6641845703125
2021-09-22 21:07:11.418780,0.15087890625,0.05908203125,1.04052734375,3.4991455078125,-0.7525634765625,2.142333984375
2021-09-22 21:07:11.428688,0.1455078125,0.12109375,0.86328125,3.2904052734375,-0.9283447265625,1.6204833984375
2021-09-22 21:07:11.438635,0.06884765625,0.0830078125,0.859375,3.1146240234375,-1.0931396484375,1.142578125
2021-09-22 21:07:11.448498,-0.07080078125,0.03955078125,0.93359375,2.9443359375,-1.1370849609375,0.7415771484375
2021-09-22 21:07:11.458543,-0.04052734375,0.16259765625,0.87646484375,2.801513671875,-1.07666015625,0.472412109375
2021-09-22 21:07:11.468473,0.0546875,0.07421875,0.85107421875,2.5653076171875,-0.999755859375,0.3515625
2021-09-22 21:07:11.478349,0.07421875,0.03662109375,1.0400390625,2.384033203125,-0.87890625,0.3240966796875
2021-09-22 21:07:11.488672,0.01904296875,-0.02880859375,0.8193359375,2.252197265625,-0.7305908203125,0.3240966796875
2021-09-22 21:07:11.498472,-0.01611328125,0.001953125,0.9228515625,2.142333984375,-0.5548095703125,0.318603515625
2021-09-22 21:07:11.508344,-0.0771484375,-0.02392578125,0.93896484375,2.054443359375,-0.274658203125,0.3460693359375
2021-09-22 21:07:11.518198,-0.07666015625,-0.0166015625,1.06884765625,2.0159912109375,0.076904296875,0.4339599609375
2021-09-22 21:07:11.528340,-0.00439453125,-0.048828125,1.05908203125,2.032470703125,0.4229736328125,0.5548095703125
2021-09-22 21:07:11.538429,0.00048828125,-0.099609375,0.88525390625,2.032470703125,0.780029296875,0.6976318359375
2021-09-22 21:07:11.548503,-0.0556640625,0.0673828125,1.2666015625,2.0159912109375,1.1370849609375,0.889892578125
2021-09-22 21:07:11.558355,-0.1142578125,-0.00537109375,1.13330078125,1.9281005859375,1.4337158203125,1.1865234375
2021-09-22 21:07:11.568267,-0.11865234375,-0.029296875,0.97705078125,1.8511962890625,1.768798828125,1.51611328125
2021-09-22 21:07:11.578788,-0.13818359375,0.0234375,0.95947265625,1.8017578125,2.120361328125,1.8621826171875
2021-09-22 21:07:11.588012,-0.12158203125,-0.0625,1.30615234375,1.856689453125,2.4224853515625,2.2467041015625
2021-09-22 21:07:11.598132,-0.09228515625,0.04736328125,0.89404296875,2.0159912109375,2.7301025390625,2.713623046875
2021-09-22 21:07:11.608049,-0.09326171875,0.02197265625,1.08154296875,2.2137451171875,2.9443359375,3.18603515625
2021-09-22 21:07:11.618115,-0.10791015625,0.03466796875,0.93115234375,2.4609375,3.109130859375,3.614501953125
2021-09-22 21:07:11.628200,-0.09619140625,-0.07177734375,1.21533203125,2.669677734375,3.240966796875,3.9276123046875
2021-09-22 21:07:11.638092,-0.02001953125,0.08740234375,0.86181640625,2.8509521484375,3.2025146484375,4.141845703125
2021-09-22 21:07:11.647915,-0.0146484375,-0.03125,1.0419921875,2.955322265625,3.0267333984375,4.3231201171875
2021-09-22 21:07:11.657860,0.015625,0.140625,0.7783203125,3.0047607421875,2.6971435546875,4.4769287109375
2021-09-22 21:07:11.667771,-0.05322265625,0.08984375,0.94580078125,2.9608154296875,2.3016357421875,4.6307373046875
2021-09-22 21:07:11.677836,-0.10400390625,0.01318359375,0.77490234375,2.955322265625,1.8731689453125,4.7515869140625
2021-09-22 21:07:11.687917,-0.1435546875,0.08349609375,0.98974609375,3.043212890625,1.4886474609375,4.844970703125
2021-09-22 21:07:11.697768,-0.15283203125,0.09375,1.130859375,3.131103515625,1.1370849609375,4.8834228515625
2021-09-22 21:07:11.707662,-0.1240234375,0.07666015625,0.919921875,3.2464599609375,0.845947265625,4.81201171875
2021-09-22 21:07:11.717730,0.01318359375,0.05419921875,0.94677734375,3.31787109375,0.516357421875,4.5977783203125
2021-09-22 21:07:11.727616,0.12060546875,0.07373046875,0.9384765625,3.3123779296875,0.1593017578125,4.273681640625
2021-09-22 21:07:11.737536,0.14892578125,0.1181640625,0.96875,3.2794189453125,-0.1702880859375,3.8836669921875
2021-09-22 21:07:11.747635,0.02294921875,0.01806640625,1.265625,3.218994140625,-0.4449462890625,3.4771728515625
2021-09-22 21:07:11.757857,0.017578125,0.037109375,1.04345703125,3.14208984375,-0.7635498046875,3.0322265625
2021-09-22 21:07:11.767584,0.115234375,0.033203125,0.9619140625,2.911376953125,-0.9942626953125,2.515869140625
2021-09-22 21:07:11.777397,0.11572265625,0.109375,0.84912109375,2.6312255859375,-1.109619140625,1.9720458984375
2021-09-22 21:07:11.787307,0.0810546875,0.076171875,0.80859375,2.3895263671875,-1.2139892578125,1.4666748046875
2021-09-22 21:07:11.797410,-0.08544921875,0.0595703125,0.9658203125,2.1917724609375,-1.1865234375,1.0546875
2021-09-22 21:07:11.807352,-0.0673828125,0.0732421875,0.74609375,2.0379638671875,-0.999755859375,0.76904296875
2021-09-22 21:07:11.817308,0.08984375,0.09765625,0.94189453125,1.77978515625,-0.802001953125,0.5987548828125
2021-09-22 21:07:11.827684,0.1484375,0.01171875,0.990234375,1.56005859375,-0.582275390625,0.52734375
2021-09-22 21:07:11.837312,0.02490234375,-0.04541015625,0.7919921875,1.351318359375,-0.32958984375,0.50537109375
2021-09-22 21:07:11.847210,-0.0263671875,-0.01708984375,0.90234375,1.142578125,-0.0274658203125,0.4833984375
2021-09-22 21:07:11.857283,-0.083984375,-0.03466796875,0.93701171875,0.9393310546875,0.37353515625,0.4888916015625
2021-09-22 21:07:11.867217,-0.0625,-0.044921875,0.98193359375,0.8294677734375,0.845947265625,0.5328369140625
2021-09-22 21:07:11.877121,-0.00830078125,-0.0517578125,1.01025390625,0.802001953125,1.329345703125,0.5987548828125
2021-09-22 21:07:11.887289,0.00634765625,-0.09765625,0.8994140625,0.7745361328125,1.812744140625,0.692138671875
2021-09-22 21:07:11.897321,-0.0283203125,0.14501953125,1.2421875,0.780029296875,2.318115234375,0.8184814453125
2021-09-22 21:07:11.907097,0.0380859375,-0.04638671875,1.35009765625,0.81298828125,2.6202392578125,1.0272216796875
2021-09-22 21:07:11.916987,-0.03125,-0.00830078125,1.220703125,1.0931396484375,2.8125,1.2744140625
2021-09-22 21:07:11.927110,-0.15185546875,0.01806640625,1.10498046875,1.494140625,2.9937744140625,1.571044921875
2021-09-22 21:07:11.937003,-0.0576171875,-0.0341796875,1.39794921875,1.9775390625,3.0926513671875,1.944580078125
2021-09-22 21:07:11.946877,-0.0859375,0.0732421875,0.92138671875,2.4884033203125,3.1805419921875,2.4005126953125
2021-09-22 21:07:11.957532,-0.07177734375,-0.22802734375,1.12451171875,2.7685546875,3.1915283203125,2.9168701171875
2021-09-22 21:07:11.967286,-0.00634765625,0.07177734375,0.9169921875,2.867431640625,3.087158203125,3.438720703125
2021-09-22 21:07:11.977463,-0.0205078125,0.04150390625,0.8974609375,2.83447265625,2.8125,3.8397216796875
2021-09-22 21:07:11.987282,-0.01513671875,0.11474609375,1.01708984375,2.6531982421875,2.4554443359375,4.053955078125
2021-09-22 21:07:11.997342,-0.1494140625,0.11572265625,0.83740234375,2.43896484375,2.054443359375,4.2242431640625
2021-09-22 21:07:12.007103,-0.078125,0.1181640625,0.5146484375,2.230224609375,1.6204833984375,4.41650390625
2021-09-22 21:07:12.017221,-0.001953125,0.00146484375,0.7216796875,1.9610595703125,1.131591796875,4.5977783203125
2021-09-22 21:07:12.027116,-0.0615234375,0.013671875,0.904296875,1.8182373046875,0.68115234375,4.7735595703125
2021-09-22 21:07:12.037112,-0.08837890625,0.0546875,0.76708984375,1.768798828125,0.3240966796875,4.8944091796875
2021-09-22 21:07:12.047234,-0.07666015625,0.021484375,0.96875,1.73583984375,-0.0054931640625,4.94384765625
2021-09-22 21:07:12.057038,-0.01953125,-0.03759765625,0.90966796875,1.7193603515625,-0.318603515625,4.8724365234375
2021-09-22 21:07:12.066637,0.056640625,0.02001953125,0.92138671875,1.669921875,-0.604248046875,4.6746826171875
2021-09-22 21:07:12.077620,0.1279296875,0.0068359375,0.95166015625,1.5325927734375,-0.85693359375,4.3890380859375
2021-09-22 21:07:12.087120,0.17333984375,0.0537109375,0.8935546875,1.3458251953125,-1.0931396484375,4.04296875
2021-09-22 21:07:12.096887,0.021484375,0.0419921875,1.32373046875,1.16455078125,-1.2579345703125,3.658447265625
2021-09-22 21:07:12.106925,0.01513671875,-0.048828125,1.0986328125,1.07666015625,-1.40625,3.1915283203125
2021-09-22 21:07:12.116952,0.056640625,0.07080078125,1.05322265625,0.8953857421875,-1.3458251953125,2.6092529296875
2021-09-22 21:07:12.126909,0.140625,0.03662109375,0.8984375,0.7305908203125,-1.1865234375,1.966552734375
2021-09-22 21:07:12.136803,0.021484375,0.02783203125,0.8310546875,0.6097412109375,-0.911865234375,1.351318359375
2021-09-22 21:07:12.146768,-0.07421875,0.00244140625,0.8837890625,0.50537109375,-0.516357421875,0.823974609375
2021-09-22 21:07:12.156747,-0.02099609375,0.08740234375,0.9814453125,0.32958984375,-0.02197265625,0.4010009765625
2021-09-22 21:07:12.166712,-0.00244140625,-0.07421875,0.7080078125,-0.0439453125,0.54931640625,0.1153564453125
2021-09-22 21:07:12.176703,0.2294921875,0.14892578125,1.248046875,-0.19775390625,0.9832763671875,-0.0604248046875
2021-09-22 21:07:12.186704,0.08056640625,-0.0634765625,1.08984375,-0.2142333984375,1.263427734375,-0.2362060546875
2021-09-22 21:07:12.196914,0.10595703125,-0.02783203125,1.32080078125,0.054931640625,1.3238525390625,-0.4669189453125
2021-09-22 21:07:12.206638,0.01513671875,-0.154296875,0.9892578125,0.362548828125,1.3128662109375,-0.692138671875
2021-09-22 21:07:12.216782,-0.04833984375,0.12109375,1.22412109375,0.582275390625,1.439208984375,-0.8734130859375
2021-09-22 21:07:12.226605,0.00390625,0.0673828125,1.16357421875,0.7086181640625,1.571044921875,-0.9942626953125
2021-09-22 21:07:12.236528,0.052734375,0.07470703125,1.21923828125,0.87890625,1.658935546875,-0.9832763671875
2021-09-22 21:07:12.246441,0.01611328125,0.1435546875,1.2548828125,1.109619140625,1.7303466796875,-0.845947265625
2021-09-22 21:07:12.256387,-0.0361328125,0.2314453125,1.390625,1.351318359375,1.73583984375,-0.59326171875
2021-09-22 21:07:12.266333,-0.09326171875,0.1748046875,1.1875,1.6973876953125,1.7303466796875,-0.263671875
2021-09-22 21:07:12.276488,-0.10595703125,0.1552734375,1.20068359375,2.076416015625,1.7578125,0.1043701171875
2021-09-22 21:07:12.286386,-0.08544921875,0.19775390625,1.3583984375,2.471923828125,1.8621826171875,0.4779052734375
2021-09-22 21:07:12.296374,-0.12841796875,0.16943359375,1.04443359375,2.8729248046875,2.010498046875,0.8404541015625
2021-09-22 21:07:12.306216,-0.052734375,-0.14013671875,1.06201171875,3.1640625,2.1038818359375,1.175537109375
2021-09-22 21:07:12.316326,-0.02734375,0.04443359375,0.9208984375,3.3123779296875,2.098388671875,1.494140625
2021-09-22 21:07:12.326172,0.00048828125,-0.20654296875,0.765625,3.197021484375,1.9720458984375,1.7578125
2021-09-22 21:07:12.336187,0.12158203125,-0.00341796875,0.767578125,2.9443359375,1.6314697265625,1.95556640625
2021-09-22 21:07:12.346132,0.01416015625,-0.0048828125,0.96240234375,2.5927734375,1.285400390625,2.2027587890625
2021-09-22 21:07:12.356119,-0.1220703125,0.0654296875,0.6494140625,2.164306640625,0.9942626953125,2.4993896484375
2021-09-22 21:07:12.366104,-0.1162109375,0.0390625,0.5380859375,1.7303466796875,0.7196044921875,2.8070068359375
2021-09-22 21:07:12.376059,-0.109375,-0.06103515625,0.77685546875,1.34033203125,0.46142578125,3.09814453125
2021-09-22 21:07:12.385963,-0.13232421875,-0.03564453125,0.876953125,1.0601806640625,0.2252197265625,3.33984375
2021-09-22 21:07:12.396355,-0.1337890625,-0.10009765625,0.814453125,0.8624267578125,0.0164794921875,3.4661865234375
2021-09-22 21:07:12.406158,-0.0537109375,-0.10009765625,0.9296875,0.714111328125,-0.1702880859375,3.4661865234375
2021-09-22 21:07:12.415904,0.01123046875,-0.06591796875,0.93896484375,0.5712890625,-0.3460693359375,3.3453369140625
2021-09-22 21:07:12.425800,0.12744140625,-0.04345703125,0.9267578125,0.439453125,-0.54931640625,3.1201171875
2021-09-22 21:07:12.435813,0.14990234375,-0.01513671875,0.87158203125,0.32958984375,-0.758056640625,2.79052734375
2021-09-22 21:07:12.445667,0.0048828125,-0.11962890625,1.20458984375,0.274658203125,-0.911865234375,2.4334716796875
2021-09-22 21:07:12.455897,0.00390625,-0.0751953125,0.94482421875,0.2032470703125,-1.12060546875,2.021484375
2021-09-22 21:07:12.465737,0.10302734375,-0.0673828125,0.97314453125,0.0,-1.241455078125,1.4996337890625
2021-09-22 21:07:12.475673,0.080078125,0.02099609375,0.857421875,-0.2471923828125,-1.2744140625,0.933837890625
2021-09-22 21:07:12.485241,0.02880859375,-0.05078125,0.865234375,-0.4449462890625,-1.2744140625,0.3790283203125
2021-09-22 21:07:12.495616,-0.1044921875,-0.03466796875,0.921875,-0.5438232421875,-1.12060546875,-0.0933837890625
2021-09-22 21:07:12.505395,-0.10595703125,-0.0048828125,0.92041015625,-0.6207275390625,-0.8184814453125,-0.4449462890625
2021-09-22 21:07:12.515527,0.06396484375,0.01806640625,0.85400390625,-0.758056640625,-0.4559326171875,-0.6207275390625
2021-09-22 21:07:12.525431,0.06640625,-0.0322265625,0.94287109375,-0.9393310546875,-0.054931640625,-0.6536865234375
2021-09-22 21:07:12.535271,0.09130859375,-0.12890625,1.2529296875,-1.087646484375,0.28564453125,-0.648193359375
2021-09-22 21:07:12.545340,-0.01904296875,-0.1455078125,0.7705078125,-1.12060546875,0.582275390625,-0.670166015625
2021-09-22 21:07:12.555348,-0.0712890625,-0.04052734375,1.5166015625,-1.1260986328125,0.72509765625,-0.7525634765625
2021-09-22 21:07:12.565366,0.03125,-0.00439453125,0.92578125,-0.8514404296875,0.6866455078125,-0.85693359375
2021-09-22 21:07:12.575710,0.0126953125,0.0400390625,1.22021484375,-0.494384765625,0.63720703125,-0.8349609375
