time,acc_x,acc_y,acc_z,roll,pitch,yaw
2021-09-22 20:32:37.903579,-0.0546875,-0.029296875,1.03076171875,-1.38427734375,3.40576171875,21.544189453125
2021-09-22 20:32:37.909676,-0.052734375,-0.0302734375,1.02294921875,-1.4117431640625,3.3563232421875,21.533203125
2021-09-22 20:32:37.919443,-0.05712890625,-0.0380859375,1.02197265625,-1.4447021484375,3.306884765625,21.5167236328125
2021-09-22 20:32:37.929315,-0.0634765625,-0.037109375,1.02197265625,-1.47216796875,3.2574462890625,21.5057373046875
2021-09-22 20:32:37.939400,-0.06787109375,-0.033203125,1.03076171875,-1.4996337890625,3.2025146484375,21.5057373046875
2021-09-22 20:32:37.949678,-0.06103515625,-0.0322265625,1.03271484375,-1.5106201171875,3.1475830078125,21.5057373046875
2021-09-22 20:32:37.959293,-0.056640625,-0.02587890625,1.0263671875,-1.51611328125,3.087158203125,21.51123046875
2021-09-22 20:32:37.969250,-0.04296875,-0.0224609375,1.02294921875,-1.505126953125,3.01025390625,21.5167236328125
2021-09-22 20:32:37.979276,-0.03271484375,-0.0185546875,1.02294921875,-1.4776611328125,2.92236328125,21.51123046875
2021-09-22 20:32:37.989173,-0.02099609375,-0.01806640625,1.00830078125,-1.4447021484375,2.8179931640625,21.500244140625
2021-09-22 20:32:37.999137,-0.01904296875,-0.0205078125,0.99853515625,-1.4007568359375,2.6971435546875,21.4727783203125
2021-09-22 20:32:38.009121,-0.02734375,-0.02587890625,0.998046875,-1.3623046875,2.5762939453125,21.4453125
2021-09-22 20:32:38.019191,-0.02685546875,-0.02685546875,0.99267578125,-1.3238525390625,2.4444580078125,21.4178466796875
2021-09-22 20:32:38.029113,-0.02001953125,-0.02490234375,0.99072265625,-1.2744140625,2.318115234375,21.390380859375
2021-09-22 20:32:38.038954,-0.017578125,-0.01953125,0.994140625,-1.2139892578125,2.2027587890625,21.368408203125
2021-09-22 20:32:38.049010,-0.0087890625,-0.01708984375,0.97314453125,-1.1480712890625,2.098388671875,21.346435546875
2021-09-22 20:32:38.059473,0.0009765625,-0.017578125,0.9638671875,-1.07666015625,1.9830322265625,21.3299560546875
2021-09-22 20:32:38.069549,-0.0009765625,-0.013671875,0.97021484375,-0.999755859375,1.8621826171875,21.3134765625
2021-09-22 20:32:38.079547,-0.03125,0.0009765625,0.9755859375,-0.911865234375,1.7523193359375,21.3079833984375
2021-09-22 20:32:38.089075,0.00390625,-0.01318359375,0.96728515625,-0.8349609375,1.6424560546875,21.302490234375
2021-09-22 20:32:38.098888,-0.0029296875,-0.0107421875,0.96435546875,-0.758056640625,1.5380859375,21.3079833984375
2021-09-22 20:32:38.108769,-0.01416015625,0.00341796875,0.9755859375,-0.670166015625,1.4501953125,21.3134765625
2021-09-22 20:32:38.118681,-0.00341796875,-0.001953125,0.9697265625,-0.59326171875,1.3677978515625,21.324462890625
2021-09-22 20:32:38.128888,-0.00048828125,-0.00244140625,0.97607421875,-0.52734375,1.2799072265625,21.33544921875
2021-09-22 20:32:38.139236,-0.01123046875,0.001953125,0.98974609375,-0.4669189453125,1.2030029296875,21.3519287109375
2021-09-22 20:32:38.148703,-0.01904296875,-0.00439453125,0.97705078125,-0.428466796875,1.1370849609375,21.368408203125
2021-09-22 20:32:38.158768,-0.017578125,-0.00830078125,1.0048828125,-0.406494140625,1.07666015625,21.3848876953125
2021-09-22 20:32:38.168658,-0.02587890625,-0.0009765625,0.998046875,-0.4119873046875,1.0272216796875,21.4013671875
2021-09-22 20:32:38.178546,-0.02294921875,-0.0078125,1.00146484375,-0.439453125,0.977783203125,21.4178466796875
2021-09-22 20:32:38.188449,-0.01708984375,-0.0029296875,1.00537109375,-0.4833984375,0.9283447265625,21.42333984375
2021-09-22 20:32:38.198625,-0.013671875,-0.0087890625,0.99755859375,-0.560302734375,0.867919921875,21.4288330078125
2021-09-22 20:32:38.208491,-0.00439453125,-0.017578125,1.0009765625,-0.6536865234375,0.8074951171875,21.42333984375
2021-09-22 20:32:38.218515,-0.00390625,-0.0087890625,1.01708984375,-0.758056640625,0.7470703125,21.4178466796875
2021-09-22 20:32:38.229869,0.00732421875,-0.01806640625,1.02001953125,-0.8734130859375,0.6976318359375,21.4013671875
2021-09-22 20:32:38.238495,0.00830078125,-0.02734375,1.0126953125,-1.0052490234375,0.670166015625,21.3848876953125
2021-09-22 20:32:38.249107,0.00537109375,-0.0283203125,1.01904296875,-1.142578125,0.6756591796875,21.368408203125
2021-09-22 20:32:38.258246,0.005859375,-0.03662109375,1.01904296875,-1.2908935546875,0.692138671875,21.3519287109375
2021-09-22 20:32:38.268293,0.0068359375,-0.03759765625,1.0185546875,-1.4501953125,0.72509765625,21.3299560546875
2021-09-22 20:32:38.278383,0.00732421875,-0.03564453125,1.02490234375,-1.6094970703125,0.7635498046875,21.3134765625
2021-09-22 20:32:38.288232,0.0,-0.03271484375,1.0283203125,-1.7633056640625,0.81298828125,21.2969970703125
2021-09-22 20:32:38.297456,-0.00537109375,-0.0380859375,1.02880859375,-1.9171142578125,0.8734130859375,21.2750244140625
2021-09-22 20:32:38.308009,-0.005859375,-0.04736328125,1.03173828125,-2.0599365234375,0.9283447265625,21.2640380859375
2021-09-22 20:32:38.318128,-0.0244140625,-0.05078125,1.0478515625,-2.2027587890625,0.9942626953125,21.2640380859375
2021-09-22 20:32:38.328010,-0.0302734375,-0.0546875,1.0400390625,-2.3345947265625,1.0491943359375,21.280517578125
2021-09-22 20:32:38.338238,-0.0380859375,-0.0595703125,1.0458984375,-2.4609375,1.0986328125,21.3079833984375
2021-09-22 20:32:38.347952,-0.0439453125,-0.0556640625,1.05322265625,-2.5762939453125,1.1260986328125,21.3519287109375
2021-09-22 20:32:38.357880,-0.0458984375,-0.05224609375,1.05322265625,-2.6751708984375,1.142578125,21.4068603515625
2021-09-22 20:32:38.367936,-0.04833984375,-0.0498046875,1.0693359375,-2.757568359375,1.1480712890625,21.456298828125
2021-09-22 20:32:38.377835,-0.05517578125,-0.04443359375,1.0869140625,-2.8125,1.16455078125,21.5057373046875
2021-09-22 20:32:38.387727,-0.06103515625,-0.05029296875,1.08544921875,-2.8509521484375,1.1865234375,21.544189453125
2021-09-22 20:32:38.397770,-0.064453125,-0.052734375,1.0751953125,-2.87841796875,1.20849609375,21.5771484375
2021-09-22 20:32:38.407731,-0.068359375,-0.056640625,1.083984375,-2.889404296875,1.2139892578125,21.610107421875
2021-09-22 20:32:38.417706,-0.0595703125,-0.05615234375,1.07861328125,-2.8948974609375,1.197509765625,21.64306640625
2021-09-22 20:32:38.427616,-0.05615234375,-0.05712890625,1.0732421875,-2.8839111328125,1.1590576171875,21.6815185546875
2021-09-22 20:32:38.437553,-0.0439453125,-0.0556640625,1.0703125,-2.8564453125,1.1041259765625,21.7144775390625
2021-09-22 20:32:38.447616,-0.03466796875,-0.04833984375,1.07275390625,-2.8125,1.043701171875,21.741943359375
2021-09-22 20:32:38.457492,-0.025390625,-0.044921875,1.06591796875,-2.74658203125,0.9942626953125,21.7584228515625
2021-09-22 20:32:38.467527,-0.015625,-0.05029296875,1.05126953125,-2.669677734375,0.9613037109375,21.7529296875
2021-09-22 20:32:38.477584,-0.00927734375,-0.04638671875,1.0390625,-2.581787109375,0.94482421875,21.7254638671875
2021-09-22 20:32:38.487496,-0.009765625,-0.0498046875,1.02734375,-2.493896484375,0.933837890625,21.676025390625
2021-09-22 20:32:38.497402,-0.01611328125,-0.0546875,1.013671875,-2.4224853515625,0.9173583984375,21.610107421875
2021-09-22 20:32:38.507302,-0.021484375,-0.0517578125,1.017578125,-2.3675537109375,0.867919921875,21.5277099609375
2021-09-22 20:32:38.517201,-0.02734375,-0.05517578125,1.015625,-2.3345947265625,0.7855224609375,21.434326171875
2021-09-22 20:32:38.527352,-0.03125,-0.06201171875,1.021484375,-2.3291015625,0.6756591796875,21.3409423828125
2021-09-22 20:32:38.537338,-0.04150390625,-0.0634765625,1.0263671875,-2.3345947265625,0.5548095703125,21.2530517578125
2021-09-22 20:32:38.547228,-0.048828125,-0.0595703125,1.033203125,-2.3455810546875,0.4339599609375,21.170654296875
2021-09-22 20:32:38.557110,-0.0478515625,-0.05419921875,1.025390625,-2.3565673828125,0.3240966796875,21.0992431640625
2021-09-22 20:32:38.567279,-0.04638671875,-0.05078125,1.01611328125,-2.362060546875,0.2197265625,21.038818359375
2021-09-22 20:32:38.577172,-0.0458984375,-0.04736328125,1.013671875,-2.373046875,0.1263427734375,20.98388671875
2021-09-22 20:32:38.587074,-0.041015625,-0.0419921875,1.00439453125,-2.384033203125,0.032958984375,20.9344482421875
2021-09-22 20:32:38.597149,-0.03857421875,-0.04296875,0.9990234375,-2.39501953125,-0.0604248046875,20.885009765625
2021-09-22 20:32:38.607058,-0.0341796875,-0.0380859375,0.9912109375,-2.4114990234375,-0.1702880859375,20.830078125
2021-09-22 20:32:38.616932,-0.0322265625,-0.037109375,0.99169921875,-2.4224853515625,-0.28564453125,20.775146484375
2021-09-22 20:32:38.627007,-0.0283203125,-0.03564453125,0.9833984375,-2.4334716796875,-0.4119873046875,20.72021484375
2021-09-22 20:32:38.636836,-0.01904296875,-0.037109375,0.98095703125,-2.43896484375,-0.5438232421875,20.6597900390625
2021-09-22 20:32:38.646884,-0.00927734375,-0.03662109375,0.978515625,-2.427978515625,-0.692138671875,20.599365234375
2021-09-22 20:32:38.656806,-0.0087890625,-0.0380859375,0.9716796875,-2.406005859375,-0.8349609375,20.54443359375
2021-09-22 20:32:38.666734,-0.0048828125,-0.04248046875,0.9619140625,-2.3785400390625,-0.9832763671875,20.489501953125
2021-09-22 20:32:38.676721,-0.0009765625,-0.04248046875,0.95458984375,-2.340087890625,-1.1370849609375,20.445556640625
2021-09-22 20:32:38.686779,0.00390625,-0.04150390625,0.94873046875,-2.296142578125,-1.29638671875,20.41259765625
2021-09-22 20:32:38.696659,0.01513671875,-0.03857421875,0.9384765625,-2.2412109375,-1.461181640625,20.390625
2021-09-22 20:32:38.706625,0.02685546875,-0.03515625,0.9306640625,-2.1807861328125,-1.636962890625,20.390625
2021-09-22 20:32:38.716532,0.03271484375,-0.033203125,0.9267578125,-2.1148681640625,-1.812744140625,20.3961181640625
2021-09-22 20:32:38.726598,0.03662109375,-0.02880859375,0.92431640625,-2.04345703125,-1.9775390625,20.4071044921875
2021-09-22 20:32:38.736782,0.0400390625,-0.02587890625,0.9296875,-1.9610595703125,-2.1368408203125,20.423583984375
2021-09-22 20:32:38.747200,0.04541015625,-0.02392578125,0.92578125,-1.8731689453125,-2.274169921875,20.4400634765625
2021-09-22 20:32:38.756354,0.0458984375,-0.02490234375,0.92626953125,-1.7852783203125,-2.384033203125,20.45654296875
2021-09-22 20:32:38.766471,0.04345703125,-0.0234375,0.93017578125,-1.6973876953125,-2.4609375,20.4730224609375
2021-09-22 20:32:38.776336,0.0498046875,-0.0185546875,0.92431640625,-1.60400390625,-2.5103759765625,20.478515625
2021-09-22 20:32:38.786290,0.05322265625,-0.0185546875,0.92138671875,-1.51611328125,-2.537841796875,20.478515625
2021-09-22 20:32:38.796324,0.05859375,-0.02001953125,0.919921875,-1.4337158203125,-2.5543212890625,20.4730224609375
2021-09-22 20:32:38.806369,0.0634765625,-0.02099609375,0.921875,-1.3568115234375,-2.559814453125,20.4510498046875
2021-09-22 20:32:38.816254,0.06787109375,-0.025390625,0.9169921875,-1.29638671875,-2.5543212890625,20.4180908203125
2021-09-22 20:32:38.826157,0.0712890625,-0.02783203125,0.91455078125,-1.2469482421875,-2.5543212890625,20.379638671875
2021-09-22 20:32:38.836052,0.06982421875,-0.025390625,0.923828125,-1.2030029296875,-2.5433349609375,20.3302001953125
2021-09-22 20:32:38.846162,0.06640625,-0.0244140625,0.9296875,-1.175537109375,-2.52685546875,20.28076171875
2021-09-22 20:32:38.856019,0.0615234375,-0.02490234375,0.93359375,-1.153564453125,-2.493896484375,20.225830078125
2021-09-22 20:32:38.866270,0.05517578125,-0.021484375,0.9404296875,-1.1480712890625,-2.4444580078125,20.1654052734375
2021-09-22 20:32:38.875927,0.05126953125,-0.01806640625,0.94873046875,-1.142578125,-2.3785400390625,20.10498046875
2021-09-22 20:32:38.886048,0.04833984375,-0.01806640625,0.95751953125,-1.1480712890625,-2.2906494140625,20.0390625
2021-09-22 20:32:38.895938,0.04052734375,-0.01611328125,0.96337890625,-1.153564453125,-2.17529296875,19.9676513671875
2021-09-22 20:32:38.905868,0.037109375,-0.0166015625,0.95654296875,-1.16455078125,-2.04345703125,19.896240234375
2021-09-22 20:32:38.915957,0.03125,-0.01708984375,0.96630859375,-1.1865234375,-1.900634765625,19.8193359375
2021-09-22 20:32:38.925962,0.02294921875,-0.01611328125,0.97607421875,-1.2139892578125,-1.746826171875,19.7369384765625
2021-09-22 20:32:38.935844,0.01953125,-0.015625,0.98046875,-1.25244140625,-1.593017578125,19.654541015625
2021-09-22 20:32:38.945780,0.02294921875,-0.015625,0.97998046875,-1.285400390625,-1.4501953125,19.566650390625
2021-09-22 20:32:38.955803,0.02001953125,-0.0146484375,0.98876953125,-1.318359375,-1.3128662109375,19.4842529296875
2021-09-22 20:32:38.965734,0.01806640625,-0.01416015625,0.9912109375,-1.3458251953125,-1.175537109375,19.4073486328125
2021-09-22 20:32:38.975633,0.01416015625,-0.01318359375,0.990234375,-1.3623046875,-1.043701171875,19.3359375
2021-09-22 20:32:38.985750,0.00439453125,-0.01416015625,0.9970703125,-1.3677978515625,-0.9063720703125,19.2645263671875
2021-09-22 20:32:38.995849,-0.00244140625,-0.00927734375,1.00439453125,-1.3623046875,-0.76904296875,19.1986083984375
2021-09-22 20:32:39.006086,-0.00732421875,-0.00927734375,1.00830078125,-1.351318359375,-0.6207275390625,19.1436767578125
2021-09-22 20:32:39.016097,-0.0087890625,-0.0068359375,1.00830078125,-1.3238525390625,-0.472412109375,19.09423828125
2021-09-22 20:32:39.026205,-0.0107421875,-0.00244140625,1.0166015625,-1.2799072265625,-0.318603515625,19.0557861328125
2021-09-22 20:32:39.036077,-0.01025390625,-0.00244140625,1.017578125,-1.219482421875,-0.1702880859375,19.0228271484375
2021-09-22 20:32:39.046099,-0.01025390625,-0.00244140625,1.017578125,-1.1590576171875,-0.0164794921875,18.9898681640625
2021-09-22 20:32:39.056007,-0.00830078125,0.00244140625,1.01806640625,-1.087646484375,0.120849609375,18.96240234375
2021-09-22 20:32:39.066117,-0.0029296875,0.001953125,1.01611328125,-0.9942626953125,0.2471923828125,18.9349365234375
2021-09-22 20:32:39.076114,-0.00341796875,-0.0009765625,1.01708984375,-0.8953857421875,0.3570556640625,18.907470703125
2021-09-22 20:32:39.086096,-0.00439453125,-0.00390625,1.02001953125,-0.7965087890625,0.450439453125,18.8909912109375
2021-09-22 20:32:39.095899,-0.001953125,-0.0029296875,1.0234375,-0.6866455078125,0.5218505859375,18.87451171875
2021-09-22 20:32:39.105912,-0.00244140625,0.0,1.02783203125,-0.582275390625,0.5767822265625,18.8690185546875
2021-09-22 20:32:39.115716,-0.00390625,0.0029296875,1.03369140625,-0.4669189453125,0.626220703125,18.8690185546875
2021-09-22 20:32:39.125983,-0.00439453125,0.00439453125,1.0341796875,-0.3460693359375,0.670166015625,18.87451171875
2021-09-22 20:32:39.135793,-0.005859375,0.005859375,1.0341796875,-0.2252197265625,0.714111328125,18.885498046875
2021-09-22 20:32:39.145752,-0.00927734375,0.0078125,1.03759765625,-0.098876953125,0.7525634765625,18.907470703125
2021-09-22 20:32:39.155518,-0.00927734375,0.00732421875,1.04248046875,0.0164794921875,0.791015625,18.929443359375
2021-09-22 20:32:39.165722,-0.005859375,0.0068359375,1.041015625,0.142822265625,0.8349609375,18.96240234375
2021-09-22 20:32:39.175634,-0.0009765625,0.01123046875,1.03466796875,0.263671875,0.87890625,19.0008544921875
2021-09-22 20:32:39.185665,0.00537109375,0.013671875,1.029296875,0.384521484375,0.9173583984375,19.039306640625
2021-09-22 20:32:39.195645,0.01318359375,0.0166015625,1.02685546875,0.4888916015625,0.94482421875,19.072265625
2021-09-22 20:32:39.205466,0.0166015625,0.0185546875,1.03125,0.582275390625,0.9503173828125,19.105224609375
2021-09-22 20:32:39.215464,0.0205078125,0.017578125,1.02490234375,0.6536865234375,0.933837890625,19.127197265625
2021-09-22 20:32:39.225323,0.013671875,0.015625,1.02734375,0.714111328125,0.9173583984375,19.13818359375
2021-09-22 20:32:39.235299,0.00830078125,0.01123046875,1.02783203125,0.7470703125,0.8953857421875,19.149169921875
2021-09-22 20:32:39.245997,0.0009765625,0.0068359375,1.02978515625,0.758056640625,0.87890625,19.1656494140625
2021-09-22 20:32:39.255470,-0.001953125,0.0068359375,1.0302734375,0.758056640625,0.8734130859375,19.18212890625
2021-09-22 20:32:39.265361,-0.00341796875,0.0107421875,1.0400390625,0.7415771484375,0.889892578125,19.2095947265625
2021-09-22 20:32:39.275366,0.00390625,0.01123046875,1.03076171875,0.7196044921875,0.9228515625,19.237060546875
2021-09-22 20:32:39.285340,0.005859375,0.01123046875,1.02294921875,0.6866455078125,0.955810546875,19.27001953125
2021-09-22 20:32:39.295183,0.00634765625,0.0126953125,1.0244140625,0.648193359375,0.9942626953125,19.2974853515625
2021-09-22 20:32:39.305075,0.0029296875,0.005859375,1.02783203125,0.59326171875,1.0382080078125,19.3304443359375
2021-09-22 20:32:39.315305,0.00146484375,0.00439453125,1.02001953125,0.5218505859375,1.0711669921875,19.35791015625
2021-09-22 20:32:39.325158,-0.0048828125,0.00439453125,1.025390625,0.4339599609375,1.0986328125,19.390869140625
2021-09-22 20:32:39.335114,-0.01220703125,0.00537109375,1.03662109375,0.340576171875,1.1260986328125,19.4183349609375
2021-09-22 20:32:39.344981,-0.01513671875,0.00341796875,1.03466796875,0.24169921875,1.142578125,19.4403076171875
2021-09-22 20:32:39.355118,-0.02001953125,0.00439453125,1.0322265625,0.1373291015625,1.1480712890625,19.4622802734375
2021-09-22 20:32:39.364844,-0.02685546875,0.0009765625,1.04443359375,0.032958984375,1.142578125,19.4842529296875
2021-09-22 20:32:39.374587,-0.0322265625,-0.00048828125,1.05029296875,-0.06591796875,1.1260986328125,19.500732421875
2021-09-22 20:32:39.384429,-0.03125,-0.005859375,1.05419921875,-0.1702880859375,1.1041259765625,19.5172119140625
2021-09-22 20:32:39.394459,-0.0244140625,-0.00927734375,1.0478515625,-0.2691650390625,1.0821533203125,19.5391845703125
2021-09-22 20:32:39.404490,-0.01220703125,-0.0029296875,1.04052734375,-0.362548828125,1.0546875,19.5721435546875
2021-09-22 20:32:39.415222,-0.00244140625,-0.00341796875,1.03662109375,-0.4449462890625,1.021728515625,19.599609375
2021-09-22 20:32:39.424218,0.00341796875,-0.00048828125,1.0322265625,-0.516357421875,0.9722900390625,19.632568359375
2021-09-22 20:32:39.434322,0.0068359375,0.0009765625,1.02294921875,-0.5767822265625,0.9173583984375,19.66552734375
2021-09-22 20:32:39.444291,0.0087890625,-0.00390625,1.01220703125,-0.626220703125,0.845947265625,19.6929931640625
2021-09-22 20:32:39.454140,0.0068359375,-0.0068359375,1.0185546875,-0.6591796875,0.76904296875,19.7259521484375
2021-09-22 20:32:39.464069,0.0029296875,-0.01123046875,1.0224609375,-0.6866455078125,0.6976318359375,19.7589111328125
2021-09-22 20:32:39.474289,0.0048828125,-0.0185546875,1.0126953125,-0.6976318359375,0.6427001953125,19.8028564453125
2021-09-22 20:32:39.484157,0.00732421875,-0.017578125,1.00927734375,-0.6866455078125,0.5987548828125,19.852294921875
2021-09-22 20:32:39.494104,0.00537109375,-0.01416015625,1.0068359375,-0.6591796875,0.5712890625,19.9017333984375
2021-09-22 20:32:39.503960,0.00927734375,-0.013671875,1.00146484375,-0.6097412109375,0.54931640625,19.9566650390625
2021-09-22 20:32:39.514017,0.01318359375,-0.0107421875,0.99853515625,-0.54931640625,0.5328369140625,20.006103515625
2021-09-22 20:32:39.523913,0.01513671875,-0.01171875,0.99267578125,-0.472412109375,0.5108642578125,20.0445556640625
2021-09-22 20:32:39.533897,0.013671875,-0.01611328125,0.998046875,-0.3955078125,0.4888916015625,20.072021484375
2021-09-22 20:32:39.543955,0.009765625,-0.017578125,0.99755859375,-0.3131103515625,0.4669189453125,20.0994873046875
2021-09-22 20:32:39.554412,0.001953125,-0.01513671875,0.98876953125,-0.230712890625,0.439453125,20.115966796875
2021-09-22 20:32:39.564331,-0.00830078125,-0.01416015625,0.98876953125,-0.15380859375,0.4119873046875,20.126953125
2021-09-22 20:32:39.574324,-0.015625,-0.013671875,0.9970703125,-0.0823974609375,0.37353515625,20.1324462890625
2021-09-22 20:32:39.584406,-0.02001953125,-0.0107421875,0.99853515625,-0.0164794921875,0.3350830078125,20.1324462890625
2021-09-22 20:32:39.594285,-0.0185546875,-0.00830078125,0.99560546875,0.0439453125,0.3021240234375,20.126953125
2021-09-22 20:32:39.604138,-0.015625,-0.00390625,0.99609375,0.1153564453125,0.2691650390625,20.115966796875
2021-09-22 20:32:39.614230,-0.0166015625,0.0,1.001953125,0.186767578125,0.252685546875,20.0994873046875
2021-09-22 20:32:39.623908,-0.01611328125,-0.00390625,0.99609375,0.252685546875,0.2471923828125,20.0775146484375
2021-09-22 20:32:39.634134,-0.017578125,-0.00634765625,0.98876953125,0.3131103515625,0.252685546875,20.050048828125
2021-09-22 20:32:39.643896,-0.01953125,-0.0009765625,0.98681640625,0.362548828125,0.2691650390625,20.01708984375
2021-09-22 20:32:39.654222,-0.01708984375,-0.00048828125,0.9892578125,0.4119873046875,0.296630859375,19.9896240234375
2021-09-22 20:32:39.664067,-0.01806640625,0.00048828125,0.98974609375,0.4449462890625,0.32958984375,19.9566650390625
2021-09-22 20:32:39.674038,-0.01806640625,0.00390625,0.98486328125,0.472412109375,0.3680419921875,19.92919921875
2021-09-22 20:32:39.683873,-0.0234375,0.005859375,0.98095703125,0.4888916015625,0.406494140625,19.896240234375
2021-09-22 20:32:39.693881,-0.03173828125,0.00439453125,0.984375,0.4888916015625,0.4449462890625,19.86328125
2021-09-22 20:32:39.703862,-0.04638671875,0.00146484375,0.99755859375,0.4669189453125,0.4888916015625,19.830322265625
2021-09-22 20:32:39.713806,-0.05419921875,0.00244140625,1.00146484375,0.4229736328125,0.538330078125,19.8028564453125
2021-09-22 20:32:39.723636,-0.05810546875,0.001953125,1.00439453125,0.37353515625,0.5987548828125,19.786376953125
2021-09-22 20:32:39.733856,-0.0546875,0.00537109375,1.0068359375,0.3076171875,0.6756591796875,19.775390625
2021-09-22 20:32:39.744187,-0.05029296875,0.005859375,1.0029296875,0.24169921875,0.76904296875,19.7698974609375
2021-09-22 20:32:39.753685,-0.0458984375,0.00634765625,0.99462890625,0.1702880859375,0.867919921875,19.7698974609375
2021-09-22 20:32:39.763635,-0.04345703125,0.00537109375,0.994140625,0.098876953125,0.955810546875,19.7698974609375
2021-09-22 20:32:39.773840,-0.044921875,0.00390625,0.99658203125,0.0164794921875,1.0382080078125,19.7808837890625
2021-09-22 20:32:39.783832,-0.04833984375,0.001953125,0.99267578125,-0.0604248046875,1.109619140625,19.7918701171875
2021-09-22 20:32:39.793639,-0.04833984375,0.0009765625,0.9951171875,-0.1373291015625,1.1700439453125,19.8138427734375
2021-09-22 20:32:39.803473,-0.04833984375,0.001953125,1.00927734375,-0.208740234375,1.2249755859375,19.8358154296875
2021-09-22 20:32:39.813569,-0.04638671875,0.00390625,1.01220703125,-0.2691650390625,1.2744140625,19.8577880859375
2021-09-22 20:32:39.823230,-0.04833984375,0.00341796875,1.00537109375,-0.3131103515625,1.3238525390625,19.8797607421875
2021-09-22 20:32:39.832905,-0.046875,0.00341796875,1.01318359375,-0.340576171875,1.3677978515625,19.896240234375
2021-09-22 20:32:39.842906,-0.0419921875,0.0,1.01318359375,-0.3515625,1.4007568359375,19.918212890625
2021-09-22 20:32:39.852577,-0.0390625,-0.0029296875,1.0126953125,-0.3570556640625,1.4337158203125,19.9346923828125
2021-09-22 20:32:39.862777,-0.03564453125,-0.00537109375,1.01025390625,-0.3515625,1.4556884765625,19.9566650390625
2021-09-22 20:32:39.872720,-0.03125,-0.0087890625,1.01220703125,-0.32958984375,1.483154296875,19.9786376953125
2021-09-22 20:32:39.882654,-0.02392578125,-0.0078125,1.0078125,-0.3021240234375,1.505126953125,20.0006103515625
2021-09-22 20:32:39.892544,-0.01513671875,-0.00927734375,1.00244140625,-0.2581787109375,1.527099609375,20.028076171875
2021-09-22 20:32:39.902617,-0.0107421875,-0.0107421875,1.005859375,-0.208740234375,1.5435791015625,20.0555419921875
2021-09-22 20:32:39.912584,-0.009765625,-0.00927734375,1.00830078125,-0.1483154296875,1.5545654296875,20.0830078125
2021-09-22 20:32:39.922543,-0.01025390625,-0.01416015625,1.01025390625,-0.087890625,1.571044921875,20.10498046875
2021-09-22 20:32:39.932501,-0.01025390625,-0.01220703125,1.01123046875,-0.0164794921875,1.593017578125,20.1214599609375
2021-09-22 20:32:39.942710,-0.0126953125,-0.0107421875,1.01171875,0.0494384765625,1.614990234375,20.1434326171875
2021-09-22 20:32:39.952543,-0.01611328125,-0.01318359375,1.01513671875,0.1153564453125,1.64794921875,20.1544189453125
2021-09-22 20:32:39.962342,-0.01806640625,-0.0107421875,1.01708984375,0.1812744140625,1.69189453125,20.1654052734375
2021-09-22 20:32:39.972502,-0.017578125,-0.0107421875,1.0166015625,0.24169921875,1.7413330078125,20.1708984375
2021-09-22 20:32:39.982352,-0.0185546875,-0.009765625,1.01025390625,0.296630859375,1.790771484375,20.1708984375
2021-09-22 20:32:39.992280,-0.0224609375,-0.0078125,1.01904296875,0.340576171875,1.8402099609375,20.159912109375
2021-09-22 20:32:40.002233,-0.0244140625,-0.005859375,1.017578125,0.3790283203125,1.878662109375,20.1434326171875
2021-09-22 20:32:40.012299,-0.03125,-0.0087890625,1.017578125,0.406494140625,1.9171142578125,20.1214599609375
2021-09-22 20:32:40.022237,-0.03076171875,-0.00732421875,1.02197265625,0.41748046875,1.9500732421875,20.093994140625
2021-09-22 20:32:40.032171,-0.0322265625,-0.01025390625,1.0224609375,0.428466796875,1.9830322265625,20.06103515625
2021-09-22 20:32:40.042097,-0.03125,-0.01171875,1.0244140625,0.4229736328125,2.0159912109375,20.028076171875
2021-09-22 20:32:40.052059,-0.037109375,-0.00927734375,1.03466796875,0.41748046875,2.0599365234375,20.0006103515625
2021-09-22 20:32:40.062126,-0.0322265625,-0.00537109375,1.02490234375,0.406494140625,2.109375,19.9676513671875
2021-09-22 20:32:40.072013,-0.02978515625,-0.005859375,1.021484375,0.3900146484375,2.1533203125,19.9346923828125
2021-09-22 20:32:40.081913,-0.0283203125,-0.00537109375,1.02197265625,0.362548828125,2.1807861328125,19.9017333984375
2021-09-22 20:32:40.091873,-0.029296875,-0.00537109375,1.02685546875,0.32958984375,2.197265625,19.86328125
2021-09-22 20:32:40.102028,-0.0263671875,-0.005859375,1.02490234375,0.2911376953125,2.2027587890625,19.8248291015625
2021-09-22 20:32:40.112008,-0.02734375,-0.0009765625,1.033203125,0.2581787109375,2.197265625,19.786376953125
2021-09-22 20:32:40.121962,-0.0322265625,0.0,1.02978515625,0.2252197265625,2.197265625,19.7479248046875
2021-09-22 20:32:40.131543,-0.0341796875,0.0,1.03271484375,0.19775390625,2.2027587890625,19.7149658203125
2021-09-22 20:32:40.141493,-0.03369140625,-0.001953125,1.0283203125,0.17578125,2.2027587890625,19.6875
2021-09-22 20:32:40.151764,-0.033203125,0.0,1.0263671875,0.1593017578125,2.208251953125,19.66552734375
2021-09-22 20:32:40.161647,-0.03125,0.00244140625,1.02734375,0.15380859375,2.2027587890625,19.6490478515625
2021-09-22 20:32:40.171988,-0.029296875,0.0029296875,1.025390625,0.1593017578125,2.1917724609375,19.632568359375
2021-09-22 20:32:40.181665,-0.0302734375,0.0078125,1.025390625,0.17578125,2.186279296875,19.62158203125
2021-09-22 20:32:40.191560,-0.03173828125,0.009765625,1.02099609375,0.19775390625,2.1807861328125,19.6051025390625
2021-09-22 20:32:40.201480,-0.03369140625,0.0087890625,1.01611328125,0.230712890625,2.1807861328125,19.5831298828125
2021-09-22 20:32:40.211606,-0.033203125,0.0087890625,1.01806640625,0.263671875,2.1697998046875,19.5556640625
2021-09-22 20:32:40.221484,-0.03662109375,0.009765625,1.01953125,0.296630859375,2.164306640625,19.5281982421875
2021-09-22 20:32:40.231567,-0.0390625,0.00634765625,1.01806640625,0.32958984375,2.1588134765625,19.500732421875
2021-09-22 20:32:40.242097,-0.0400390625,0.0068359375,1.02001953125,0.362548828125,2.1478271484375,19.4677734375
2021-09-22 20:32:40.251396,-0.0390625,0.00732421875,1.017578125,0.3900146484375,2.1368408203125,19.4403076171875
2021-09-22 20:32:40.261426,-0.03662109375,0.0087890625,1.01416015625,0.4229736328125,2.120361328125,19.412841796875
2021-09-22 20:32:40.271329,-0.03369140625,0.00927734375,1.01025390625,0.450439453125,2.098388671875,19.390869140625
2021-09-22 20:32:40.281272,-0.0341796875,0.00927734375,1.01171875,0.4779052734375,2.076416015625,19.3634033203125
2021-09-22 20:32:40.291296,-0.0361328125,0.01123046875,1.0087890625,0.4998779296875,2.054443359375,19.3414306640625
2021-09-22 20:32:40.301292,-0.03515625,0.013671875,1.00830078125,0.5218505859375,2.032470703125,19.3194580078125
2021-09-22 20:32:40.311184,-0.0361328125,0.0166015625,1.0078125,0.54931640625,2.0050048828125,19.302978515625
2021-09-22 20:32:40.321113,-0.03662109375,0.0146484375,1.0029296875,0.5657958984375,1.9720458984375,19.281005859375
2021-09-22 20:32:40.331011,-0.03857421875,0.01416015625,1.00439453125,0.582275390625,1.944580078125,19.2645263671875
2021-09-22 20:32:40.341077,-0.0400390625,0.015625,1.0068359375,0.5987548828125,1.922607421875,19.248046875
2021-09-22 20:32:40.351152,-0.0390625,0.01416015625,0.99951171875,0.615234375,1.900634765625,19.237060546875
2021-09-22 20:32:40.361004,-0.04052734375,0.0126953125,1.00439453125,0.6207275390625,1.878662109375,19.22607421875
2021-09-22 20:32:40.371056,-0.0400390625,0.01708984375,1.00634765625,0.6317138671875,1.8621826171875,19.215087890625
2021-09-22 20:32:40.381045,-0.03662109375,0.0166015625,1.0048828125,0.63720703125,1.8511962890625,19.2095947265625
2021-09-22 20:32:40.390901,-0.03564453125,0.01611328125,0.9990234375,0.6427001953125,1.8402099609375,19.1986083984375
2021-09-22 20:32:40.400860,-0.0322265625,0.01904296875,0.99658203125,0.6427001953125,1.82373046875,19.1876220703125
2021-09-22 20:32:40.410918,-0.0302734375,0.01611328125,0.9951171875,0.63720703125,1.8017578125,19.1766357421875
2021-09-22 20:32:40.420835,-0.03173828125,0.0146484375,0.99853515625,0.6317138671875,1.77978515625,19.16015625
2021-09-22 20:32:40.430770,-0.0341796875,0.0126953125,1.00341796875,0.6207275390625,1.7633056640625,19.149169921875
2021-09-22 20:32:40.440631,-0.03564453125,0.01123046875,1.00048828125,0.604248046875,1.7523193359375,19.13818359375
2021-09-22 20:32:40.450756,-0.03955078125,0.00830078125,0.99658203125,0.582275390625,1.746826171875,19.127197265625
2021-09-22 20:32:40.460794,-0.0380859375,0.00830078125,0.99755859375,0.560302734375,1.7413330078125,19.127197265625
2021-09-22 20:32:40.470658,-0.0341796875,0.00830078125,0.99658203125,0.5328369140625,1.73583984375,19.127197265625
2021-09-22 20:32:40.480538,-0.0283203125,0.00927734375,0.990234375,0.50537109375,1.7193603515625,19.127197265625
2021-09-22 20:32:40.490662,-0.0244140625,0.009765625,0.990234375,0.472412109375,1.6973876953125,19.1326904296875
2021-09-22 20:32:40.500664,-0.021484375,0.01220703125,0.99609375,0.4449462890625,1.669921875,19.1326904296875
2021-09-22 20:32:40.510470,-0.01904296875,0.013671875,1.0,0.41748046875,1.6534423828125,19.127197265625
2021-09-22 20:32:40.520454,-0.0234375,0.0107421875,0.99365234375,0.3955078125,1.636962890625,19.1217041015625
2021-09-22 20:32:40.530529,-0.02392578125,0.01025390625,0.9951171875,0.37353515625,1.636962890625,19.1107177734375
2021-09-22 20:32:40.540394,-0.02392578125,0.009765625,0.98974609375,0.3460693359375,1.6314697265625,19.0997314453125
2021-09-22 20:32:40.550325,-0.0263671875,0.0087890625,0.990234375,0.3240966796875,1.6259765625,19.0887451171875
2021-09-22 20:32:40.560254,-0.0244140625,0.00830078125,0.99462890625,0.2911376953125,1.614990234375,19.072265625
2021-09-22 20:32:40.570301,-0.02783203125,0.009765625,0.9990234375,0.263671875,1.6094970703125,19.0557861328125
2021-09-22 20:32:40.580229,-0.03125,0.01220703125,1.0,0.24169921875,1.60400390625,19.0338134765625
2021-09-22 20:32:40.590220,-0.03173828125,0.0087890625,0.9990234375,0.2142333984375,1.614990234375,19.0118408203125
2021-09-22 20:32:40.600155,-0.033203125,0.01318359375,0.99853515625,0.1922607421875,1.6314697265625,18.984375
2021-09-22 20:32:40.610217,-0.03271484375,0.00927734375,0.99609375,0.1702880859375,1.658935546875,18.9569091796875
2021-09-22 20:32:40.620154,-0.03271484375,0.009765625,0.99560546875,0.15380859375,1.69189453125,18.91845703125
2021-09-22 20:32:40.630061,-0.033203125,0.009765625,0.9990234375,0.1373291015625,1.724853515625,18.885498046875
2021-09-22 20:32:40.640078,-0.0302734375,0.0107421875,0.9912109375,0.120849609375,1.7578125,18.8525390625
2021-09-22 20:32:40.650149,-0.02978515625,0.01123046875,0.990234375,0.10986328125,1.7852783203125,18.8250732421875
2021-09-22 20:32:40.659990,-0.03076171875,0.01123046875,0.99169921875,0.10986328125,1.812744140625,18.797607421875
2021-09-22 20:32:40.669917,-0.033203125,0.01220703125,0.99853515625,0.120849609375,1.8402099609375,18.7811279296875
2021-09-22 20:32:40.679969,-0.03857421875,0.01318359375,1.0,0.1373291015625,1.878662109375,18.7646484375
2021-09-22 20:32:40.689879,-0.0390625,0.013671875,1.001953125,0.1702880859375,1.922607421875,18.7481689453125
2021-09-22 20:32:40.699817,-0.04150390625,0.01318359375,1.00048828125,0.208740234375,1.9720458984375,18.74267578125
2021-09-22 20:32:40.709711,-0.04150390625,0.0146484375,1.0,0.252685546875,2.021484375,18.7371826171875
2021-09-22 20:32:40.719769,-0.0419921875,0.013671875,0.99853515625,0.3021240234375,2.0599365234375,18.731689453125
2021-09-22 20:32:40.729843,-0.04345703125,0.01318359375,0.99658203125,0.3515625,2.098388671875,18.731689453125
2021-09-22 20:32:40.740199,-0.044921875,0.0107421875,1.00146484375,0.4010009765625,2.1368408203125,18.7371826171875
2021-09-22 20:32:40.749597,-0.0458984375,0.0146484375,1.009765625,0.4559326171875,2.1807861328125,18.7481689453125
2021-09-22 20:32:40.759521,-0.0458984375,0.0146484375,1.0068359375,0.50537109375,2.230224609375,18.7591552734375
2021-09-22 20:32:40.769622,-0.04638671875,0.01416015625,1.005859375,0.5548095703125,2.28515625,18.7701416015625
2021-09-22 20:32:40.779692,-0.04638671875,0.01513671875,1.0107421875,0.59326171875,2.340087890625,18.7811279296875
2021-09-22 20:32:40.789534,-0.046875,0.01318359375,1.013671875,0.626220703125,2.3895263671875,18.78662109375
2021-09-22 20:32:40.799406,-0.04541015625,0.01318359375,1.0078125,0.648193359375,2.4334716796875,18.797607421875
2021-09-22 20:32:40.809477,-0.04541015625,0.0126953125,1.01171875,0.6646728515625,2.4774169921875,18.80859375
2021-09-22 20:32:40.819419,-0.0439453125,0.01416015625,1.013671875,0.670166015625,2.5213623046875,18.8140869140625
2021-09-22 20:32:40.829341,-0.04443359375,0.01416015625,1.01220703125,0.670166015625,2.5543212890625,18.8250732421875
2021-09-22 20:32:40.839301,-0.044921875,0.013671875,1.01513671875,0.6536865234375,2.5872802734375,18.83056640625
2021-09-22 20:32:40.849438,-0.04931640625,0.01171875,1.0205078125,0.6317138671875,2.6092529296875,18.8360595703125
2021-09-22 20:32:40.859795,-0.05029296875,0.01220703125,1.02099609375,0.5987548828125,2.6202392578125,18.841552734375
2021-09-22 20:32:40.869851,-0.048828125,0.009765625,1.01708984375,0.5548095703125,2.6312255859375,18.8525390625
2021-09-22 20:32:40.879655,-0.04638671875,0.00927734375,1.01953125,0.50537109375,2.6422119140625,18.8690185546875
2021-09-22 20:32:40.889755,-0.04541015625,0.01025390625,1.025390625,0.4559326171875,2.6531982421875,18.885498046875
2021-09-22 20:32:40.899574,-0.04931640625,0.01220703125,1.02880859375,0.4119873046875,2.6806640625,18.9019775390625
2021-09-22 20:32:40.909540,-0.04345703125,0.009765625,1.0224609375,0.362548828125,2.713623046875,18.9239501953125
2021-09-22 20:32:40.919696,-0.0390625,0.0068359375,1.02001953125,0.318603515625,2.74658203125,18.951416015625
2021-09-22 20:32:40.929536,-0.03466796875,0.00634765625,1.017578125,0.274658203125,2.7685546875,18.973388671875
2021-09-22 20:32:40.939449,-0.03466796875,0.00341796875,1.0205078125,0.2252197265625,2.7740478515625,19.0008544921875
2021-09-22 20:32:40.949380,-0.033203125,0.001953125,1.017578125,0.1812744140625,2.7685546875,19.0283203125
2021-09-22 20:32:40.959448,-0.03564453125,0.00244140625,1.02001953125,0.1373291015625,2.757568359375,19.0557861328125
2021-09-22 20:32:40.969377,-0.03857421875,-0.0009765625,1.02294921875,0.0933837890625,2.74658203125,19.083251953125
2021-09-22 20:32:40.979374,-0.04345703125,0.0,1.02490234375,0.0604248046875,2.7410888671875,19.1107177734375
2021-09-22 20:32:40.989089,-0.044921875,-0.0009765625,1.0244140625,0.032958984375,2.7410888671875,19.13818359375
2021-09-22 20:32:40.999165,-0.0419921875,-0.00048828125,1.0224609375,0.010986328125,2.7410888671875,19.1656494140625
2021-09-22 20:32:41.008933,-0.0390625,-0.00146484375,1.02197265625,0.0,2.7410888671875,19.1876220703125
2021-09-22 20:32:41.018868,-0.037109375,-0.00146484375,1.0224609375,-0.0054931640625,2.7410888671875,19.2095947265625
2021-09-22 20:32:41.028587,-0.0390625,-0.00244140625,1.01708984375,-0.0054931640625,2.735595703125,19.22607421875
2021-09-22 20:32:41.039091,-0.04296875,-0.001953125,1.02099609375,-0.0054931640625,2.724609375,19.2425537109375
2021-09-22 20:32:41.048758,-0.04296875,-0.00439453125,1.0224609375,-0.0054931640625,2.7081298828125,19.2535400390625
2021-09-22 20:32:41.058899,-0.0419921875,-0.00341796875,1.02099609375,0.0,2.691650390625,19.2645263671875
2021-09-22 20:32:41.068827,-0.041015625,-0.00537109375,1.0185546875,0.0054931640625,2.6751708984375,19.2755126953125
2021-09-22 20:32:41.078776,-0.0419921875,-0.00537109375,1.017578125,0.0164794921875,2.6531982421875,19.281005859375
2021-09-22 20:32:41.088623,-0.0400390625,-0.00390625,1.01513671875,0.032958984375,2.6312255859375,19.2919921875
2021-09-22 20:32:41.099018,-0.03857421875,-0.00244140625,1.01611328125,0.054931640625,2.603759765625,19.2919921875
2021-09-22 20:32:41.109071,-0.037109375,-0.001953125,1.01904296875,0.0823974609375,2.5653076171875,19.2974853515625
2021-09-22 20:32:41.118923,-0.0361328125,-0.001953125,1.015625,0.1043701171875,2.5323486328125,19.2919921875
2021-09-22 20:32:41.128718,-0.0361328125,-0.0009765625,1.01611328125,0.1318359375,2.493896484375,19.2864990234375
2021-09-22 20:32:41.138950,-0.0380859375,-0.00048828125,1.01513671875,0.1593017578125,2.4554443359375,19.281005859375
2021-09-22 20:32:41.148945,-0.04150390625,-0.0009765625,1.01220703125,0.186767578125,2.4224853515625,19.2755126953125
2021-09-22 20:32:41.158931,-0.04150390625,-0.00048828125,1.0126953125,0.208740234375,2.39501953125,19.2645263671875
2021-09-22 20:32:41.168845,-0.044921875,-0.00146484375,1.0068359375,0.2252197265625,2.3785400390625,19.2535400390625
2021-09-22 20:32:41.178821,-0.04443359375,-0.00048828125,1.001953125,0.24169921875,2.3675537109375,19.248046875
2021-09-22 20:32:41.188714,-0.04150390625,0.0,1.0,0.252685546875,2.362060546875,19.237060546875
2021-09-22 20:32:41.198266,-0.04248046875,0.0,1.0009765625,0.263671875,2.3675537109375,19.2315673828125
2021-09-22 20:32:41.208263,-0.0390625,0.00146484375,0.998046875,0.2691650390625,2.3675537109375,19.2205810546875
2021-09-22 20:32:41.218443,-0.0380859375,0.001953125,1.0009765625,0.2691650390625,2.362060546875,19.215087890625
2021-09-22 20:32:41.228566,-0.041015625,-0.00146484375,0.9970703125,0.2581787109375,2.3565673828125,19.2095947265625
2021-09-22 20:32:41.239136,-0.04541015625,-0.00146484375,0.99658203125,0.2471923828125,2.3455810546875,19.2041015625
2021-09-22 20:32:41.248382,-0.0478515625,-0.001953125,0.99755859375,0.2252197265625,2.3291015625,19.2041015625
2021-09-22 20:32:41.258688,-0.05224609375,0.0009765625,0.99755859375,0.2032470703125,2.30712890625,19.2095947265625
2021-09-22 20:32:41.268663,-0.0556640625,0.0,1.00390625,0.17578125,2.28515625,19.215087890625
2021-09-22 20:32:41.278211,-0.05810546875,0.00146484375,1.0068359375,0.1483154296875,2.2796630859375,19.22607421875
2021-09-22 20:32:41.288430,-0.0546875,0.001953125,1.0009765625,0.120849609375,2.2796630859375,19.237060546875
2021-09-22 20:32:41.298365,-0.052734375,0.001953125,0.998046875,0.0933837890625,2.2906494140625,19.2425537109375
2021-09-22 20:32:41.307838,-0.048828125,0.0029296875,0.99951171875,0.06591796875,2.296142578125,19.2535400390625
2021-09-22 20:32:41.322078,-0.03955078125,0.0048828125,0.9990234375,0.0384521484375,2.296142578125,19.259033203125
2021-09-22 20:32:41.327666,-0.037109375,0.00390625,1.00048828125,0.010986328125,2.3016357421875,19.259033203125
2021-09-22 20:32:41.337591,-0.03662109375,0.0029296875,0.99951171875,-0.0054931640625,2.3016357421875,19.2535400390625
2021-09-22 20:32:41.347646,-0.03955078125,0.0009765625,0.99560546875,-0.032958984375,2.30712890625,19.248046875
2021-09-22 20:32:41.357146,-0.04150390625,-0.0009765625,0.9970703125,-0.0604248046875,2.3126220703125,19.2425537109375
2021-09-22 20:32:41.367470,-0.04248046875,-0.00341796875,0.99658203125,-0.087890625,2.3126220703125,19.2425537109375
2021-09-22 20:32:41.377677,-0.04248046875,-0.00537109375,0.99658203125,-0.1153564453125,2.30712890625,19.2535400390625
2021-09-22 20:32:41.387516,-0.04150390625,-0.00634765625,0.99267578125,-0.142822265625,2.296142578125,19.2645263671875
2021-09-22 20:32:41.397400,-0.0419921875,-0.00439453125,0.99609375,-0.164794921875,2.2796630859375,19.2864990234375
2021-09-22 20:32:41.407301,-0.0419921875,-0.00439453125,0.998046875,-0.1812744140625,2.274169921875,19.31396484375
2021-09-22 20:32:41.417263,-0.04345703125,-0.00390625,0.99560546875,-0.19775390625,2.274169921875,19.3414306640625
2021-09-22 20:32:41.427337,-0.04541015625,-0.00732421875,0.99853515625,-0.2142333984375,2.28515625,19.3743896484375
2021-09-22 20:32:41.437330,-0.0419921875,-0.005859375,0.99609375,-0.230712890625,2.30712890625,19.40185546875
2021-09-22 20:32:41.447256,-0.04248046875,-0.00537109375,0.99755859375,-0.2471923828125,2.3345947265625,19.423828125
2021-09-22 20:32:41.457095,-0.041015625,-0.00732421875,0.99462890625,-0.2691650390625,2.362060546875,19.4403076171875
2021-09-22 20:32:41.467160,-0.04443359375,-0.0107421875,0.99658203125,-0.296630859375,2.39501953125,19.456787109375
2021-09-22 20:32:41.477127,-0.04248046875,-0.00927734375,0.99658203125,-0.3240966796875,2.427978515625,19.4622802734375
2021-09-22 20:32:41.486998,-0.0439453125,-0.00927734375,0.99560546875,-0.3515625,2.4609375,19.4622802734375
2021-09-22 20:32:41.496935,-0.0458984375,-0.0107421875,0.9921875,-0.384521484375,2.4993896484375,19.4512939453125
2021-09-22 20:32:41.507179,-0.04833984375,-0.0107421875,0.99755859375,-0.4229736328125,2.537841796875,19.4403076171875
2021-09-22 20:32:41.517045,-0.05126953125,-0.015625,1.00048828125,-0.4669189453125,2.5872802734375,19.423828125
2021-09-22 20:32:41.526942,-0.05517578125,-0.01953125,0.98974609375,-0.516357421875,2.6312255859375,19.4073486328125
2021-09-22 20:32:41.536878,-0.0595703125,-0.01953125,0.99267578125,-0.5712890625,2.669677734375,19.390869140625
2021-09-22 20:32:41.546920,-0.056640625,-0.01953125,0.998046875,-0.6317138671875,2.6971435546875,19.3853759765625
2021-09-22 20:32:41.556800,-0.05615234375,-0.01953125,0.9990234375,-0.692138671875,2.7301025390625,19.3853759765625
2021-09-22 20:32:41.566722,-0.0546875,-0.0146484375,0.99951171875,-0.7415771484375,2.757568359375,19.3853759765625
2021-09-22 20:32:41.576935,-0.05517578125,-0.0146484375,0.9970703125,-0.791015625,2.7960205078125,19.390869140625
2021-09-22 20:32:41.586879,-0.05322265625,-0.017578125,1.0,-0.8404541015625,2.8399658203125,19.3963623046875
2021-09-22 20:32:41.596787,-0.0537109375,-0.01806640625,0.99951171875,-0.8843994140625,2.889404296875,19.3963623046875
2021-09-22 20:32:41.606627,-0.05224609375,-0.01806640625,0.99755859375,-0.9283447265625,2.9443359375,19.40185546875
2021-09-22 20:32:41.616512,-0.0517578125,-0.017578125,0.99560546875,-0.9722900390625,2.98828125,19.40185546875
2021-09-22 20:32:41.626562,-0.05029296875,-0.01806640625,0.99755859375,-1.0107421875,3.0322265625,19.3963623046875
2021-09-22 20:32:41.636552,-0.04931640625,-0.01806640625,1.0029296875,-1.0491943359375,3.076171875,19.3853759765625
2021-09-22 20:32:41.646591,-0.04833984375,-0.01953125,1.00390625,-1.07666015625,3.109130859375,19.3743896484375
2021-09-22 20:32:41.656805,-0.05126953125,-0.02197265625,1.005859375,-1.0986328125,3.14208984375,19.3634033203125
2021-09-22 20:32:41.666550,-0.0595703125,-0.021484375,1.0048828125,-1.1151123046875,3.175048828125,19.3524169921875
2021-09-22 20:32:41.676397,-0.06689453125,-0.02294921875,1.0166015625,-1.1260986328125,3.2025146484375,19.346923828125
2021-09-22 20:32:41.686309,-0.0703125,-0.02197265625,1.01953125,-1.1370849609375,3.2354736328125,19.3414306640625
2021-09-22 20:32:41.696394,-0.0712890625,-0.0224609375,1.02001953125,-1.142578125,3.262939453125,19.3414306640625
2021-09-22 20:32:41.706274,-0.068359375,-0.0205078125,1.0224609375,-1.142578125,3.2904052734375,19.346923828125
2021-09-22 20:32:41.716278,-0.06005859375,-0.01611328125,1.02783203125,-1.131591796875,3.3123779296875,19.346923828125
2021-09-22 20:32:41.726205,-0.05224609375,-0.01416015625,1.02197265625,-1.1151123046875,3.328857421875,19.3524169921875
2021-09-22 20:32:41.736806,-0.04931640625,-0.0146484375,1.02099609375,-1.087646484375,3.33984375,19.3524169921875
2021-09-22 20:32:41.746168,-0.046875,-0.01220703125,1.02392578125,-1.0546875,3.3453369140625,19.3524169921875
2021-09-22 20:32:41.756101,-0.04296875,-0.0126953125,1.02392578125,-1.0162353515625,3.3343505859375,19.346923828125
2021-09-22 20:32:41.766208,-0.05078125,-0.01318359375,1.0244140625,-0.966796875,3.328857421875,19.3359375
2021-09-22 20:32:41.776140,-0.05224609375,-0.01416015625,1.029296875,-0.9228515625,3.3123779296875,19.324951171875
2021-09-22 20:32:41.786091,-0.046875,-0.0146484375,1.0283203125,-0.867919921875,3.2904052734375,19.3194580078125
2021-09-22 20:32:41.795985,-0.04541015625,-0.01318359375,1.02734375,-0.81298828125,3.2684326171875,19.31396484375
2021-09-22 20:32:41.806028,-0.04248046875,-0.0126953125,1.02734375,-0.7470703125,3.2464599609375,19.31396484375
2021-09-22 20:32:41.815897,-0.04150390625,-0.013671875,1.02392578125,-0.68115234375,3.218994140625,19.31396484375
2021-09-22 20:32:41.825858,-0.03759765625,-0.0146484375,1.0283203125,-0.6097412109375,3.1915283203125,19.31396484375
2021-09-22 20:32:41.835730,-0.041015625,-0.015625,1.0234375,-0.5438232421875,3.1695556640625,19.3194580078125
2021-09-22 20:32:41.845848,-0.04296875,-0.017578125,1.02099609375,-0.4779052734375,3.153076171875,19.324951171875
2021-09-22 20:32:41.855986,-0.044921875,-0.01513671875,1.02294921875,-0.41748046875,3.1475830078125,19.3359375
2021-09-22 20:32:41.865779,-0.0458984375,-0.01123046875,1.0166015625,-0.362548828125,3.14208984375,19.3524169921875
2021-09-22 20:32:41.875618,-0.04541015625,-0.0087890625,1.02294921875,-0.318603515625,3.1365966796875,19.35791015625
2021-09-22 20:32:41.885720,-0.046875,-0.00732421875,1.0205078125,-0.2801513671875,3.131103515625,19.35791015625
2021-09-22 20:32:41.895639,-0.05029296875,-0.0087890625,1.0185546875,-0.252685546875,3.1201171875,19.3524169921875
2021-09-22 20:32:41.905516,-0.05126953125,-0.01171875,1.0185546875,-0.24169921875,3.109130859375,19.3414306640625
2021-09-22 20:32:41.915611,-0.05419921875,-0.013671875,1.02099609375,-0.2362060546875,3.1036376953125,19.324951171875
2021-09-22 20:32:41.925588,-0.05224609375,-0.0078125,1.0146484375,-0.24169921875,3.09814453125,19.302978515625
2021-09-22 20:32:41.935513,-0.0556640625,-0.0068359375,1.015625,-0.2581787109375,3.09814453125,19.281005859375
2021-09-22 20:32:41.945387,-0.0595703125,-0.009765625,1.0146484375,-0.2801513671875,3.09814453125,19.2535400390625
2021-09-22 20:32:41.955524,-0.06298828125,-0.01025390625,1.01123046875,-0.3021240234375,3.09814453125,19.2315673828125
2021-09-22 20:32:41.965382,-0.064453125,-0.00927734375,1.00927734375,-0.32958984375,3.0926513671875,19.2041015625
2021-09-22 20:32:41.975313,-0.0634765625,-0.01318359375,1.01123046875,-0.3570556640625,3.087158203125,19.18212890625
2021-09-22 20:32:41.985582,-0.0654296875,-0.0126953125,1.0078125,-0.3790283203125,3.0816650390625,19.1656494140625
2021-09-22 20:32:41.995436,-0.06640625,-0.01220703125,1.0087890625,-0.4010009765625,3.087158203125,19.149169921875
2021-09-22 20:32:42.005286,-0.0673828125,-0.00927734375,1.005859375,-0.4229736328125,3.09814453125,19.1436767578125
2021-09-22 20:32:42.015185,-0.06884765625,-0.0068359375,1.00537109375,-0.439453125,3.1146240234375,19.13818359375
2021-09-22 20:32:42.025247,-0.06884765625,-0.00732421875,1.0048828125,-0.450439453125,3.1256103515625,19.1326904296875
2021-09-22 20:32:42.035189,-0.0673828125,-0.0048828125,1.005859375,-0.46142578125,3.1365966796875,19.1326904296875
2021-09-22 20:32:42.045099,-0.068359375,-0.005859375,1.0068359375,-0.472412109375,3.14208984375,19.127197265625
2021-09-22 20:32:42.055185,-0.07177734375,-0.005859375,1.00732421875,-0.4833984375,3.153076171875,19.1217041015625
2021-09-22 20:32:42.065193,-0.07421875,-0.0078125,1.00634765625,-0.4888916015625,3.1640625,19.1107177734375
2021-09-22 20:32:42.075058,-0.07177734375,-0.01025390625,1.0048828125,-0.4998779296875,3.1695556640625,19.105224609375
2021-09-22 20:32:42.084952,-0.0673828125,-0.009765625,1.00439453125,-0.50537109375,3.175048828125,19.09423828125
2021-09-22 20:32:42.094885,-0.064453125,-0.0087890625,1.0,-0.50537109375,3.1805419921875,19.083251953125
2021-09-22 20:32:42.105040,-0.0615234375,-0.01025390625,0.99609375,-0.50537109375,3.1805419921875,19.072265625
2021-09-22 20:32:42.114962,-0.05615234375,-0.00927734375,0.994140625,-0.50537109375,3.1695556640625,19.061279296875
2021-09-22 20:32:42.124948,-0.05615234375,-0.01025390625,0.99169921875,-0.5108642578125,3.1640625,19.05029296875
2021-09-22 20:32:42.134816,-0.0576171875,-0.0068359375,0.99462890625,-0.5108642578125,3.1585693359375,19.0447998046875
2021-09-22 20:32:42.144860,-0.0556640625,-0.00732421875,0.9951171875,-0.50537109375,3.153076171875,19.0338134765625
2021-09-22 20:32:42.154737,-0.05615234375,-0.00927734375,0.9951171875,-0.50537109375,3.1585693359375,19.0228271484375
2021-09-22 20:32:42.164716,-0.0556640625,-0.0048828125,0.9912109375,-0.4998779296875,3.1640625,19.00634765625
2021-09-22 20:32:42.174790,-0.06005859375,-0.0068359375,0.99365234375,-0.494384765625,3.175048828125,18.995361328125
2021-09-22 20:32:42.184660,-0.0576171875,-0.0048828125,0.9912109375,-0.4888916015625,3.18603515625,18.9788818359375
2021-09-22 20:32:42.194675,-0.0595703125,-0.00537109375,0.994140625,-0.4833984375,3.2025146484375,18.96240234375
2021-09-22 20:32:42.204546,-0.05810546875,-0.00390625,0.99951171875,-0.472412109375,3.22998046875,18.9459228515625
2021-09-22 20:32:42.214653,-0.05908203125,-0.0029296875,0.99609375,-0.4669189453125,3.2574462890625,18.929443359375
2021-09-22 20:32:42.224571,-0.0595703125,-0.005859375,0.99853515625,-0.4669189453125,3.2904052734375,18.907470703125
2021-09-22 20:32:42.235216,-0.0625,-0.0048828125,0.99853515625,-0.46142578125,3.3233642578125,18.885498046875
2021-09-22 20:32:42.244458,-0.0634765625,-0.0048828125,1.00244140625,-0.46142578125,3.3563232421875,18.863525390625
2021-09-22 20:32:42.254790,-0.06298828125,-0.0029296875,1.00830078125,-0.450439453125,3.394775390625,18.841552734375
2021-09-22 20:32:42.264484,-0.06396484375,0.0,1.00830078125,-0.439453125,3.4332275390625,18.819580078125
2021-09-22 20:32:42.273981,-0.06689453125,-0.00048828125,1.0048828125,-0.428466796875,3.4771728515625,18.8031005859375
2021-09-22 20:32:42.284258,-0.06689453125,-0.00244140625,1.001953125,-0.4119873046875,3.515625,18.7811279296875
2021-09-22 20:32:42.294332,-0.0654296875,-0.00390625,1.0029296875,-0.4010009765625,3.5540771484375,18.7646484375
2021-09-22 20:32:42.304214,-0.06494140625,-0.00341796875,1.0048828125,-0.3900146484375,3.5760498046875,18.74267578125
2021-09-22 20:32:42.314147,-0.0673828125,-0.00390625,1.00732421875,-0.384521484375,3.5980224609375,18.731689453125
2021-09-22 20:32:42.324183,-0.0693359375,-0.0029296875,1.00830078125,-0.3790283203125,3.614501953125,18.720703125
2021-09-22 20:32:42.334278,-0.0751953125,-0.0029296875,1.01318359375,-0.37353515625,3.6309814453125,18.709716796875
2021-09-22 20:32:42.344179,-0.07421875,-0.00341796875,1.01318359375,-0.3680419921875,3.6529541015625,18.709716796875
2021-09-22 20:32:42.354043,-0.07373046875,-0.00146484375,1.01171875,-0.3570556640625,3.6749267578125,18.7042236328125
2021-09-22 20:32:42.364164,-0.07470703125,-0.00146484375,1.013671875,-0.3460693359375,3.6968994140625,18.7042236328125
2021-09-22 20:32:42.374086,-0.07373046875,-0.0009765625,1.0166015625,-0.3350830078125,3.7188720703125,18.7042236328125
2021-09-22 20:32:42.383911,-0.0703125,-0.00048828125,1.01708984375,-0.3240966796875,3.7353515625,18.7042236328125
2021-09-22 20:32:42.394176,-0.0654296875,-0.00341796875,1.01318359375,-0.318603515625,3.746337890625,18.7042236328125
2021-09-22 20:32:42.404057,-0.0654296875,-0.00439453125,1.00927734375,-0.3076171875,3.7518310546875,18.709716796875
2021-09-22 20:32:42.413935,-0.06689453125,-0.0048828125,1.015625,-0.296630859375,3.75732421875,18.7152099609375
2021-09-22 20:32:42.423821,-0.0673828125,-0.00341796875,1.0146484375,-0.28564453125,3.768310546875,18.720703125
2021-09-22 20:32:42.433883,-0.068359375,-0.0078125,1.02001953125,-0.274658203125,3.779296875,18.731689453125
2021-09-22 20:32:42.443830,-0.0654296875,-0.005859375,1.01904296875,-0.263671875,3.7957763671875,18.74267578125
2021-09-22 20:32:42.453900,-0.06689453125,-0.00732421875,1.021484375,-0.2471923828125,3.8067626953125,18.753662109375
2021-09-22 20:32:42.463782,-0.06787109375,-0.0068359375,1.02099609375,-0.2362060546875,3.8232421875,18.7591552734375
2021-09-22 20:32:42.473775,-0.06884765625,-0.00927734375,1.017578125,-0.2252197265625,3.834228515625,18.7701416015625
2021-09-22 20:32:42.483694,-0.072265625,-0.01025390625,1.0166015625,-0.2197265625,3.8397216796875,18.7811279296875
2021-09-22 20:32:42.493605,-0.07470703125,-0.00927734375,1.01953125,-0.2142333984375,3.8507080078125,18.78662109375
2021-09-22 20:32:42.503508,-0.07666015625,-0.00927734375,1.02490234375,-0.208740234375,3.8671875,18.797607421875
2021-09-22 20:32:42.513576,-0.076171875,-0.009765625,1.02392578125,-0.2032470703125,3.8836669921875,18.8031005859375
2021-09-22 20:32:42.523586,-0.07470703125,-0.00732421875,1.025390625,-0.2032470703125,3.900146484375,18.80859375
2021-09-22 20:32:42.533560,-0.07177734375,-0.0087890625,1.0244140625,-0.2032470703125,3.9056396484375,18.80859375
2021-09-22 20:32:42.543404,-0.0712890625,-0.01025390625,1.01806640625,-0.2032470703125,3.9111328125,18.8031005859375
2021-09-22 20:32:42.553515,-0.072265625,-0.00927734375,1.015625,-0.208740234375,3.9056396484375,18.7921142578125
2021-09-22 20:32:42.563377,-0.0693359375,-0.060546875,1.0146484375,-0.2362060546875,3.88916015625,18.775634765625
2021-09-22 20:32:42.573343,-0.052734375,-0.00244140625,1.19970703125,-0.186767578125,3.8397216796875,18.69873046875
2021-09-22 20:32:42.583408,-0.17626953125,-0.05419921875,1.28271484375,-0.1593017578125,3.812255859375,18.643798828125
2021-09-22 20:32:42.593354,-0.04541015625,0.021484375,0.60888671875,-0.24169921875,3.8067626953125,18.65478515625
2021-09-22 20:32:42.603241,0.01708984375,0.02490234375,1.04833984375,-0.2801513671875,3.779296875,18.6492919921875
2021-09-22 20:32:42.613158,-0.01513671875,0.08984375,1.1650390625,-0.19775390625,3.6968994140625,18.6492919921875
2021-09-22 20:32:42.623079,0.07666015625,-0.01220703125,0.89111328125,-0.1373291015625,3.5595703125,18.65478515625
2021-09-22 20:32:42.633155,-0.01123046875,-0.07275390625,1.0302734375,-0.1702880859375,3.438720703125,18.6328125
2021-09-22 20:32:42.643061,-0.14306640625,-0.13037109375,0.8984375,-0.19775390625,3.372802734375,18.5723876953125
2021-09-22 20:32:42.653151,-0.193359375,0.1435546875,1.11474609375,-0.15380859375,3.350830078125,18.4954833984375
2021-09-22 20:32:42.663015,-0.13671875,0.09912109375,0.98974609375,0.0,3.350830078125,18.4515380859375
2021-09-22 20:32:42.673040,-0.134765625,-0.0224609375,0.8837890625,0.0274658203125,3.394775390625,18.424072265625
2021-09-22 20:32:42.682649,-0.17138671875,-0.0126953125,1.09765625,0.0164794921875,3.4332275390625,18.43505859375
2021-09-22 20:32:42.692943,0.00634765625,0.05859375,1.06396484375,0.0384521484375,3.3782958984375,18.52294921875
2021-09-22 20:32:42.703012,0.05078125,-0.02587890625,1.13916015625,0.0714111328125,3.2794189453125,18.5888671875
2021-09-22 20:32:42.712835,-0.103515625,-0.05224609375,1.015625,0.087890625,3.2025146484375,18.6602783203125
2021-09-22 20:32:42.722894,0.03369140625,0.01904296875,0.98583984375,0.1373291015625,3.043212890625,18.7371826171875
2021-09-22 20:32:42.733432,-0.0078125,0.0517578125,1.09765625,0.2252197265625,2.8619384765625,18.80859375
2021-09-22 20:32:42.742789,-0.03857421875,0.03857421875,0.8916015625,0.3240966796875,2.713623046875,18.863525390625
2021-09-22 20:32:42.752697,-0.03662109375,-0.017578125,0.9482421875,0.3955078125,2.5543212890625,18.8909912109375
2021-09-22 20:32:42.762629,-0.0244140625,-0.02587890625,0.99267578125,0.472412109375,2.4114990234375,18.8909912109375
2021-09-22 20:32:42.772557,0.00927734375,0.00244140625,1.00537109375,0.54931640625,2.26318359375,18.87451171875
2021-09-22 20:32:42.782630,0.00341796875,0.03466796875,1.0263671875,0.6207275390625,2.120361328125,18.8525390625
2021-09-22 20:32:42.792668,-0.00390625,0.00048828125,0.955078125,0.6976318359375,1.99951171875,18.8580322265625
2021-09-22 20:32:42.802719,-0.03369140625,0.0009765625,0.96923828125,0.7745361328125,1.9281005859375,18.896484375
2021-09-22 20:32:42.812640,0.025390625,0.00830078125,0.96533203125,0.8624267578125,1.86767578125,18.9404296875
2021-09-22 20:32:42.822496,-0.0263671875,0.0654296875,1.064453125,0.9832763671875,1.86767578125,18.9678955078125
2021-09-22 20:32:42.832405,-0.02685546875,-0.02490234375,1.0009765625,1.0986328125,1.8621826171875,18.96240234375
2021-09-22 20:32:42.842509,0.01806640625,0.03662109375,1.0703125,1.197509765625,1.8511962890625,18.9129638671875
2021-09-22 20:32:42.852638,-0.00048828125,0.01025390625,1.05224609375,1.263427734375,1.8511962890625,18.819580078125
2021-09-22 20:32:42.862477,-0.01025390625,-0.01171875,1.00830078125,1.2799072265625,1.845703125,18.7152099609375
2021-09-22 20:32:42.872277,0.0205078125,-0.009765625,1.0048828125,1.263427734375,1.8017578125,18.6053466796875
2021-09-22 20:32:42.882355,0.01806640625,0.00048828125,1.0380859375,1.25244140625,1.7523193359375,18.5009765625
2021-09-22 20:32:42.892276,-0.0029296875,-0.02197265625,1.05322265625,1.2359619140625,1.6754150390625,18.380126953125
2021-09-22 20:32:42.902218,-0.0029296875,-0.00341796875,0.984375,1.2359619140625,1.5655517578125,18.248291015625
2021-09-22 20:32:42.912182,-0.01806640625,0.02685546875,0.982421875,1.263427734375,1.4501953125,18.12744140625
2021-09-22 20:32:42.922099,-0.0166015625,0.04248046875,0.90380859375,1.3018798828125,1.3458251953125,18.028564453125
2021-09-22 20:32:42.932149,-0.03173828125,0.06494140625,0.97509765625,1.373291015625,1.2579345703125,17.9571533203125
2021-09-22 20:32:42.942052,0.01025390625,0.06982421875,0.95263671875,1.47216796875,1.1810302734375,17.9571533203125
2021-09-22 20:32:42.952006,0.0322265625,0.03564453125,0.904296875,1.5545654296875,1.1041259765625,17.984619140625
2021-09-22 20:32:42.961889,0.005859375,0.01611328125,0.98291015625,1.6259765625,1.0601806640625,18.017578125
2021-09-22 20:32:42.971993,0.009765625,-0.009765625,0.98046875,1.6973876953125,1.0546875,18.0615234375
2021-09-22 20:32:42.981864,-0.0185546875,0.02197265625,0.990234375,1.7742919921875,1.0601806640625,18.0780029296875
2021-09-22 20:32:42.992500,-0.0400390625,0.08642578125,0.96337890625,1.8896484375,1.087646484375,18.0780029296875
2021-09-22 20:32:43.002291,-0.03857421875,0.08154296875,1.0185546875,2.0489501953125,1.142578125,18.094482421875
2021-09-22 20:32:43.012432,-0.021484375,0.10009765625,1.05126953125,2.208251953125,1.1920166015625,18.12744140625
2021-09-22 20:32:43.022348,-0.021484375,0.0966796875,1.0625,2.35107421875,1.2249755859375,18.160400390625
2021-09-22 20:32:43.032161,-0.01318359375,0.08837890625,1.0634765625,2.4664306640625,1.2359619140625,18.204345703125
2021-09-22 20:32:43.042226,0.0087890625,0.11865234375,1.099609375,2.5543212890625,1.23046875,18.2647705078125
2021-09-22 20:32:43.052127,-0.03076171875,0.0654296875,0.97607421875,2.603759765625,1.2030029296875,18.3251953125
2021-09-22 20:32:43.062212,-0.0068359375,0.078125,1.052734375,2.625732421875,1.175537109375,18.402099609375
2021-09-22 20:32:43.072291,-0.02197265625,0.06396484375,1.044921875,2.6312255859375,1.1480712890625,18.4954833984375
2021-09-22 20:32:43.082196,-0.0166015625,0.03955078125,0.98876953125,2.5982666015625,1.1260986328125,18.5888671875
2021-09-22 20:32:43.092104,-0.0146484375,0.0771484375,0.96240234375,2.5653076171875,1.1151123046875,18.65478515625
2021-09-22 20:32:43.102053,-0.01171875,0.04931640625,0.95458984375,2.5048828125,1.109619140625,18.687744140625
2021-09-22 20:32:43.112122,-0.0419921875,0.0146484375,0.9677734375,2.4114990234375,1.1370849609375,18.687744140625
2021-09-22 20:32:43.122059,0.0107421875,0.060546875,0.95849609375,2.318115234375,1.153564453125,18.665771484375
2021-09-22 20:32:43.131956,0.00634765625,0.08837890625,0.97900390625,2.21923828125,1.1590576171875,18.65478515625
2021-09-22 20:32:43.141955,-0.03515625,0.02978515625,0.95458984375,2.1148681640625,1.1865234375,18.6932373046875
2021-09-22 20:32:43.151882,-0.0126953125,0.03125,0.9345703125,1.988525390625,1.2139892578125,18.7921142578125
2021-09-22 20:32:43.161826,0.013671875,0.03125,0.94384765625,1.856689453125,1.241455078125,18.91845703125
2021-09-22 20:32:43.171704,-0.0400390625,0.0478515625,1.03955078125,1.73583984375,1.2799072265625,19.0447998046875
2021-09-22 20:32:43.181678,-0.037109375,-0.013671875,1.0185546875,1.6259765625,1.29638671875,19.1546630859375
2021-09-22 20:32:43.191769,0.0009765625,0.05419921875,1.05859375,1.5106201171875,1.3238525390625,19.2041015625
2021-09-22 20:32:43.201632,-0.02001953125,0.0224609375,1.02685546875,1.3787841796875,1.3568115234375,19.215087890625
2021-09-22 20:32:43.211910,-0.0205078125,-0.0068359375,1.00927734375,1.219482421875,1.38427734375,19.2095947265625
2021-09-22 20:32:43.221903,0.02734375,-0.01416015625,0.9814453125,1.0491943359375,1.38427734375,19.1986083984375
2021-09-22 20:32:43.232174,0.00390625,-0.00927734375,1.00927734375,0.90087890625,1.38427734375,19.18212890625
2021-09-22 20:32:43.241202,0.00146484375,-0.05126953125,1.037109375,0.76904296875,1.3568115234375,19.149169921875
2021-09-22 20:32:43.251216,0.00341796875,-0.029296875,0.9814453125,0.68115234375,1.3018798828125,19.09423828125
2021-09-22 20:32:43.261084,-0.00390625,0.00048828125,0.95068359375,0.648193359375,1.2579345703125,19.039306640625
2021-09-22 20:32:43.270939,0.00439453125,0.00634765625,0.89306640625,0.6427001953125,1.219482421875,18.984375
2021-09-22 20:32:43.280888,-0.0205078125,0.025390625,0.9453125,0.692138671875,1.2139892578125,18.9459228515625
2021-09-22 20:32:43.291003,0.025390625,0.03076171875,0.93896484375,0.791015625,1.197509765625,18.951416015625
2021-09-22 20:32:43.300973,0.0537109375,0.00341796875,0.873046875,0.8843994140625,1.153564453125,18.9788818359375
2021-09-22 20:32:43.310938,0.01806640625,-0.0283203125,0.97705078125,0.9942626953125,1.131591796875,18.9898681640625
2021-09-22 20:32:43.320829,0.01904296875,-0.0517578125,0.93994140625,1.109619140625,1.1260986328125,19.0008544921875
2021-09-22 20:32:43.330845,0.013671875,-0.0185546875,1.00390625,1.263427734375,1.1151123046875,18.984375
2021-09-22 20:32:43.340742,0.015625,0.02294921875,0.9814453125,1.4776611328125,1.12060546875,18.951416015625
2021-09-22 20:32:43.350767,0.0029296875,0.0048828125,0.95263671875,1.73583984375,1.153564453125,18.9239501953125
2021-09-22 20:32:43.360684,0.00830078125,0.03564453125,1.03369140625,2.0159912109375,1.1865234375,18.907470703125
2021-09-22 20:32:43.370706,0.0146484375,0.05322265625,1.07080078125,2.2906494140625,1.1920166015625,18.8909912109375
2021-09-22 20:32:43.380771,-0.01025390625,0.02294921875,1.02197265625,2.52685546875,1.16455078125,18.8800048828125
2021-09-22 20:32:43.390740,-0.005859375,0.07373046875,1.0830078125,2.735595703125,1.1151123046875,18.8800048828125
2021-09-22 20:32:43.400708,-0.0341796875,0.029296875,1.044921875,2.9058837890625,1.0546875,18.8909912109375
2021-09-22 20:32:43.410578,-0.0341796875,0.029296875,1.044921875,3.076171875,0.9942626953125,18.907470703125
2021-09-22 20:32:43.420519,-0.0322265625,0.04345703125,1.044921875,3.2135009765625,0.94482421875,18.9129638671875
2021-09-22 20:32:43.430448,-0.0537109375,0.0283203125,1.0546875,3.328857421875,0.9228515625,18.9349365234375
2021-09-22 20:32:43.440348,-0.0537109375,0.01318359375,1.0029296875,3.4002685546875,0.911865234375,18.9459228515625
2021-09-22 20:32:43.450380,-0.06005859375,0.03076171875,0.97998046875,3.4442138671875,0.9063720703125,18.9349365234375
2021-09-22 20:32:43.460431,-0.0537109375,0.01318359375,0.97119140625,3.44970703125,0.90087890625,18.885498046875
2021-09-22 20:32:43.470327,-0.08740234375,-0.00439453125,0.99072265625,3.416748046875,0.9228515625,18.8031005859375
2021-09-22 20:32:43.480262,-0.0595703125,0.0361328125,0.978515625,3.3673095703125,0.9283447265625,18.687744140625
2021-09-22 20:32:43.490124,-0.052734375,0.0849609375,1.00048828125,3.3123779296875,0.9063720703125,18.555908203125
2021-09-22 20:32:43.500205,-0.099609375,0.0439453125,0.98828125,3.2684326171875,0.911865234375,18.446044921875
2021-09-22 20:32:43.510129,-0.0791015625,0.06396484375,0.9775390625,3.2135009765625,0.911865234375,18.3746337890625
2021-09-22 20:32:43.520002,-0.060546875,0.0830078125,1.0126953125,3.1695556640625,0.911865234375,18.3251953125
2021-09-22 20:32:43.530256,-0.10205078125,0.06103515625,1.05810546875,3.1256103515625,0.9283447265625,18.25927734375
2021-09-22 20:32:43.540238,-0.1044921875,0.01171875,1.0693359375,3.0926513671875,0.9228515625,18.160400390625
2021-09-22 20:32:43.550010,-0.06787109375,0.076171875,1.0751953125,3.0596923828125,0.911865234375,18.0230712890625
2021-09-22 20:32:43.559911,-0.0576171875,0.06103515625,1.04052734375,3.0322265625,0.87890625,17.852783203125
2021-09-22 20:32:43.569991,-0.06982421875,0.04833984375,1.044921875,2.98828125,0.8184814453125,17.677001953125
2021-09-22 20:32:43.579935,-0.029296875,0.03857421875,0.98828125,2.9498291015625,0.7196044921875,17.5067138671875
2021-09-22 20:32:43.589916,-0.0419921875,0.05810546875,1.02587890625,2.9443359375,0.615234375,17.33642578125
2021-09-22 20:32:43.599778,-0.05810546875,0.02685546875,1.07373046875,2.96630859375,0.4779052734375,17.1551513671875
2021-09-22 20:32:43.610033,-0.06591796875,0.037109375,0.9990234375,3.0267333984375,0.318603515625,16.9683837890625
2021-09-22 20:32:43.620295,-0.06298828125,0.06103515625,0.96875,3.14208984375,0.164794921875,16.787109375
2021-09-22 20:32:43.629811,-0.0380859375,0.08056640625,0.9169921875,3.2904052734375,0.0164794921875,16.6387939453125
2021-09-22 20:32:43.639776,-0.0458984375,0.1044921875,0.96142578125,3.4881591796875,-0.1043701171875,16.512451171875
2021-09-22 20:32:43.649747,0.0068359375,0.11474609375,0.95068359375,3.724365234375,-0.24169921875,16.446533203125
2021-09-22 20:32:43.659658,0.05078125,0.0947265625,0.859375,3.955078125,-0.4229736328125,16.41357421875
2021-09-22 20:32:43.669567,0.01025390625,0.052734375,0.97509765625,4.1693115234375,-0.5987548828125,16.380615234375
2021-09-22 20:32:43.679685,0.00830078125,0.03955078125,0.9306640625,4.3780517578125,-0.758056640625,16.358642578125
2021-09-22 20:32:43.689541,-0.01318359375,0.064453125,0.98486328125,4.59228515625,-0.911865234375,16.314697265625
2021-09-22 20:32:43.699614,-0.00830078125,0.10302734375,0.98193359375,4.844970703125,-1.043701171875,16.248779296875
2021-09-22 20:32:43.709541,0.00537109375,0.09228515625,0.94482421875,5.1141357421875,-1.131591796875,16.19384765625
2021-09-22 20:32:43.719573,0.0205078125,0.1142578125,1.02294921875,5.3778076171875,-1.197509765625,16.138916015625
2021-09-22 20:32:43.729985,0.04638671875,0.1396484375,1.0693359375,5.60302734375,-1.263427734375,16.0894775390625
2021-09-22 20:32:43.739333,0.046875,0.10791015625,0.98876953125,5.767822265625,-1.34033203125,16.0235595703125
2021-09-22 20:32:43.749294,0.06640625,0.14794921875,1.01025390625,5.8612060546875,-1.42822265625,15.9686279296875
2021-09-22 20:32:43.759201,0.041015625,0.099609375,0.9892578125,5.877685546875,-1.5325927734375,15.9136962890625
2021-09-22 20:32:43.769253,0.0595703125,0.10595703125,1.0029296875,5.811767578125,-1.6314697265625,15.8477783203125
2021-09-22 20:32:43.779300,0.04931640625,0.10009765625,0.96435546875,5.6964111328125,-1.7193603515625,15.7928466796875
2021-09-22 20:32:43.789136,0.0224609375,0.08544921875,0.96630859375,5.5096435546875,-1.77978515625,15.7269287109375
2021-09-22 20:32:43.799159,0.0361328125,0.09912109375,0.93701171875,5.2899169921875,-1.8292236328125,15.633544921875
2021-09-22 20:32:43.809145,0.04443359375,0.09326171875,0.904296875,5.0262451171875,-1.856689453125,15.5072021484375
2021-09-22 20:32:43.819097,-0.00244140625,0.06005859375,0.9609375,4.7021484375,-1.812744140625,15.3314208984375
2021-09-22 20:32:43.829002,0.02197265625,0.06591796875,0.9599609375,4.3341064453125,-1.7413330078125,15.128173828125
2021-09-22 20:32:43.839112,0.03173828125,0.123046875,0.97021484375,3.9385986328125,-1.6534423828125,14.9359130859375
2021-09-22 20:32:43.848955,-0.03076171875,0.048828125,0.97412109375,3.515625,-1.505126953125,14.7821044921875
2021-09-22 20:32:43.859004,-0.015625,0.05126953125,0.9814453125,3.0487060546875,-1.3238525390625,14.6832275390625
2021-09-22 20:32:43.869038,0.02587890625,0.04345703125,0.9677734375,2.548828125,-1.12060546875,14.61181640625
2021-09-22 20:32:43.878934,-0.0205078125,0.09033203125,1.06884765625,2.0599365234375,-0.87890625,14.534912109375
2021-09-22 20:32:43.888830,-0.05126953125,0.00146484375,1.05419921875,1.5655517578125,-0.6536865234375,14.4415283203125
2021-09-22 20:32:43.898893,0.009765625,0.04248046875,1.056640625,1.043701171875,-0.4339599609375,14.3096923828125
2021-09-22 20:32:43.908839,-0.0126953125,0.02197265625,1.08203125,0.5218505859375,-0.2362060546875,14.12841796875
2021-09-22 20:32:43.918735,-0.04541015625,-0.00537109375,1.03125,-0.0054931640625,-0.0604248046875,13.95263671875
2021-09-22 20:32:43.929014,0.0048828125,-0.02880859375,1.00634765625,-0.5218505859375,0.0439453125,13.7933349609375
2021-09-22 20:32:43.938519,-0.02001953125,-0.025390625,1.05517578125,-0.9942626953125,0.1318359375,13.6505126953125
2021-09-22 20:32:43.948796,-0.021484375,-0.04833984375,1.10205078125,-1.40625,0.1702880859375,13.51318359375
2021-09-22 20:32:43.958670,-0.03125,-0.04833984375,1.0380859375,-1.7523193359375,0.1812744140625,13.38134765625
2021-09-22 20:32:43.968728,-0.03466796875,-0.02001953125,1.03955078125,-1.99951171875,0.19775390625,13.260498046875
2021-09-22 20:32:43.978641,-0.00146484375,0.005859375,0.98291015625,-2.186279296875,0.2252197265625,13.1671142578125
2021-09-22 20:32:43.988495,-0.03662109375,0.01123046875,1.0224609375,-2.296142578125,0.2691650390625,13.1011962890625
2021-09-22 20:32:43.998678,0.00634765625,0.01220703125,0.994140625,-2.3345947265625,0.296630859375,13.1011962890625
2021-09-22 20:32:44.008427,0.03369140625,-0.01171875,0.93701171875,-2.3675537109375,0.2691650390625,13.1451416015625
2021-09-22 20:32:44.018582,-0.0009765625,-0.0537109375,1.046875,-2.3785400390625,0.2197265625,13.216552734375
2021-09-22 20:32:44.028416,-0.0009765625,-0.07861328125,0.97998046875,-2.3675537109375,0.142822265625,13.3099365234375
2021-09-22 20:32:44.038500,-0.02392578125,-0.05078125,1.08154296875,-2.3126220703125,0.0439453125,13.4088134765625
2021-09-22 20:32:44.048444,-0.015625,-0.01025390625,1.06689453125,-2.197265625,-0.0384521484375,13.5076904296875
2021-09-22 20:32:44.058387,-0.02001953125,-0.01904296875,1.03369140625,-2.021484375,-0.098876953125,13.6175537109375
2021-09-22 20:32:44.068265,-0.00244140625,-0.00146484375,1.14599609375,-1.8182373046875,-0.1263427734375,13.7493896484375
2021-09-22 20:32:44.078435,0.00830078125,0.04150390625,1.18212890625,-1.60400390625,-0.15380859375,13.8812255859375
2021-09-22 20:32:44.088484,0.00048828125,0.0126953125,1.076171875,-1.4007568359375,-0.19775390625,14.0240478515625
2021-09-22 20:32:44.098275,0.0419921875,0.04052734375,1.1015625,-1.2249755859375,-0.2691650390625,14.1778564453125
2021-09-22 20:32:44.108138,0.0234375,-0.00341796875,1.08837890625,-1.07666015625,-0.3680419921875,14.3426513671875
2021-09-22 20:32:44.118204,0.048828125,0.01123046875,1.11669921875,-0.9393310546875,-0.4833984375,14.5074462890625
2021-09-22 20:32:44.128126,0.0537109375,0.00537109375,1.080078125,-0.8074951171875,-0.59326171875,14.6722412109375
2021-09-22 20:32:44.138047,0.0400390625,-0.0087890625,1.02587890625,-0.7196044921875,-0.7086181640625,14.8150634765625
2021-09-22 20:32:44.147920,0.03173828125,-0.01318359375,1.033203125,-0.670166015625,-0.8404541015625,14.9139404296875
2021-09-22 20:32:44.158165,0.0361328125,-0.015625,1.00244140625,-0.670166015625,-0.9942626953125,14.9798583984375
2021-09-22 20:32:44.168024,-0.00634765625,-0.0576171875,1.03857421875,-0.72509765625,-1.1370849609375,15.00732421875
2021-09-22 20:32:44.177973,0.02783203125,-0.03515625,1.02001953125,-0.8074951171875,-1.3018798828125,15.0128173828125
2021-09-22 20:32:44.187852,0.056640625,0.02734375,1.0234375,-0.889892578125,-1.483154296875,15.0347900390625
2021-09-22 20:32:44.197909,0.029296875,-0.04052734375,1.01953125,-0.955810546875,-1.6259765625,15.0897216796875
2021-09-22 20:32:44.207790,0.05078125,-0.021484375,1.01904296875,-1.0162353515625,-1.724853515625,15.1885986328125
2021-09-22 20:32:44.217713,0.087890625,-0.00439453125,0.9990234375,-1.0382080078125,-1.8017578125,15.31494140625
2021-09-22 20:32:44.228544,0.0439453125,0.0048828125,1.048828125,-1.0272216796875,-1.8292236328125,15.4248046875
2021-09-22 20:32:44.237989,0.0380859375,-0.04931640625,1.05615234375,-0.98876953125,-1.8621826171875,15.49072265625
2021-09-22 20:32:44.247740,0.072265625,0.0048828125,1.07763671875,-0.955810546875,-1.8896484375,15.49072265625
2021-09-22 20:32:44.257593,0.05126953125,-0.00927734375,1.04541015625,-0.9228515625,-1.9171142578125,15.4302978515625
2021-09-22 20:32:44.267666,0.0498046875,-0.037109375,1.04296875,-0.9228515625,-1.95556640625,15.3424072265625
2021-09-22 20:32:44.277588,0.08837890625,-0.05419921875,0.982421875,-0.9283447265625,-2.0269775390625,15.238037109375
2021-09-22 20:32:44.287572,0.06591796875,-0.04248046875,1.05224609375,-0.9173583984375,-2.0654296875,15.1226806640625
2021-09-22 20:32:44.297538,0.0615234375,-0.07568359375,1.05224609375,-0.889892578125,-2.120361328125,15.0018310546875
2021-09-22 20:32:44.307519,0.05859375,-0.07666015625,0.98681640625,-0.8404541015625,-2.197265625,14.864501953125
2021-09-22 20:32:44.317632,0.05029296875,-0.03271484375,0.9462890625,-0.7415771484375,-2.2796630859375,14.732666015625
2021-09-22 20:32:44.327432,0.0576171875,-0.0302734375,0.88525390625,-0.63720703125,-2.3785400390625,14.6173095703125
2021-09-22 20:32:44.337370,0.03466796875,0.001953125,0.93701171875,-0.494384765625,-2.4609375,14.5294189453125
2021-09-22 20:32:44.347374,0.07275390625,0.0107421875,0.95166015625,-0.318603515625,-2.5433349609375,14.4964599609375
2021-09-22 20:32:44.357288,0.0927734375,-0.00390625,0.86083984375,-0.1593017578125,-2.63671875,14.4964599609375
2021-09-22 20:32:44.367219,0.05908203125,-0.0419921875,0.96728515625,-0.0054931640625,-2.6861572265625,14.4964599609375
2021-09-22 20:32:44.377308,0.05029296875,-0.046875,0.94580078125,0.142822265625,-2.6861572265625,14.4964599609375
2021-09-22 20:32:44.386831,0.03466796875,-0.0419921875,0.9970703125,0.296630859375,-2.669677734375,14.4854736328125
2021-09-22 20:32:44.397232,0.02783203125,-0.01123046875,0.97509765625,0.4559326171875,-2.6422119140625,14.4525146484375
2021-09-22 20:32:44.407321,0.01708984375,-0.021484375,0.923828125,0.615234375,-2.5872802734375,14.4305419921875
2021-09-22 20:32:44.417225,0.01806640625,0.00244140625,1.04833984375,0.76904296875,-2.5213623046875,14.4305419921875
2021-09-22 20:32:44.427060,0.02490234375,0.04638671875,1.1171875,0.8953857421875,-2.4609375,14.43603515625
2021-09-22 20:32:44.436998,0.02001953125,0.0205078125,1.005859375,0.98876953125,-2.4114990234375,14.43603515625
2021-09-22 20:32:44.447089,0.033203125,0.06689453125,1.06884765625,1.0272216796875,-2.3675537109375,14.4525146484375
2021-09-22 20:32:44.457017,0.00830078125,-0.00048828125,1.0654296875,1.0272216796875,-2.340087890625,14.4744873046875
2021-09-22 20:32:44.467341,0.0205078125,0.0302734375,1.05908203125,0.98876953125,-2.318115234375,14.4964599609375
2021-09-22 20:32:44.476907,0.0078125,-0.00146484375,1.037109375,0.933837890625,-2.296142578125,14.5294189453125
2021-09-22 20:32:44.486951,0.009765625,-0.01904296875,0.98193359375,0.823974609375,-2.274169921875,14.5623779296875
2021-09-22 20:32:44.496873,0.00146484375,-0.00390625,0.9794921875,0.7086181640625,-2.252197265625,14.578857421875
2021-09-22 20:32:44.506768,0.00830078125,-0.009765625,0.939453125,0.5712890625,-2.2357177734375,14.5623779296875
2021-09-22 20:32:44.516667,-0.0380859375,-0.048828125,0.9775390625,0.4119873046875,-2.1807861328125,14.512939453125
2021-09-22 20:32:44.526800,-0.01220703125,-0.0126953125,0.9990234375,0.263671875,-2.1368408203125,14.4415283203125
2021-09-22 20:32:44.536728,0.0166015625,0.048828125,0.9892578125,0.1373291015625,-2.1038818359375,14.3701171875
2021-09-22 20:32:44.546692,-0.02587890625,-0.0244140625,0.982421875,0.0439453125,-2.04345703125,14.337158203125
2021-09-22 20:32:44.556768,0.00146484375,-0.0107421875,0.97314453125,-0.032958984375,-1.988525390625,14.3646240234375
2021-09-22 20:32:44.566719,0.025390625,-0.01220703125,0.97021484375,-0.1043701171875,-1.944580078125,14.4305419921875
2021-09-22 20:32:44.576545,-0.01318359375,0.0107421875,1.01220703125,-0.1373291015625,-1.8841552734375,14.4964599609375
2021-09-22 20:32:44.586647,-0.0244140625,-0.056640625,1.0703125,-0.1373291015625,-1.845703125,14.534912109375
2021-09-22 20:32:44.596564,0.01171875,0.00537109375,1.0751953125,-0.120849609375,-1.8072509765625,14.5184326171875
2021-09-22 20:32:44.606539,-0.00048828125,-0.00146484375,1.046875,-0.0823974609375,-1.7578125,14.43603515625
2021-09-22 20:32:44.616512,-0.0087890625,-0.02783203125,1.07373046875,-0.0439453125,-1.73583984375,14.3206787109375
2021-09-22 20:32:44.626625,0.03271484375,-0.0302734375,0.99267578125,0.0,-1.7523193359375,14.183349609375
2021-09-22 20:32:44.636438,0.02294921875,-0.0390625,1.0361328125,0.0604248046875,-1.77978515625,14.029541015625
2021-09-22 20:32:44.646055,0.0244140625,-0.05810546875,1.0693359375,0.142822265625,-1.845703125,13.86474609375
2021-09-22 20:32:44.656473,0.02294921875,-0.06689453125,1.00927734375,0.24169921875,-1.9281005859375,13.6834716796875
2021-09-22 20:32:44.666359,0.01513671875,-0.015625,0.962890625,0.384521484375,-2.010498046875,13.4967041015625
2021-09-22 20:32:44.676239,0.02880859375,0.0009765625,0.9248046875,0.5548095703125,-2.0819091796875,13.3099365234375
2021-09-22 20:32:44.686119,0.0185546875,0.04248046875,0.95458984375,0.758056640625,-2.1148681640625,13.1451416015625
2021-09-22 20:32:44.696203,0.04833984375,0.05224609375,0.9765625,1.0052490234375,-2.142333984375,13.0133056640625
2021-09-22 20:32:44.706013,0.08251953125,0.03466796875,0.8564453125,1.241455078125,-2.1917724609375,12.908935546875
2021-09-22 20:32:44.716094,0.05419921875,0.00390625,0.9658203125,1.4501953125,-2.2247314453125,12.7935791015625
2021-09-22 20:32:44.726702,0.05126953125,-0.02294921875,0.93310546875,1.6424560546875,-2.2357177734375,12.689208984375
2021-09-22 20:32:44.735884,0.03955078125,-0.00146484375,0.990234375,1.82373046875,-2.2412109375,12.5738525390625
2021-09-22 20:32:44.746056,0.0341796875,0.0341796875,0.9697265625,2.0269775390625,-2.2412109375,12.4420166015625
2021-09-22 20:32:44.755946,0.03271484375,0.03466796875,0.90673828125,2.2412109375,-2.2247314453125,12.315673828125
2021-09-22 20:32:44.765965,0.0390625,0.0576171875,1.05224609375,2.4444580078125,-2.1807861328125,12.216796875
2021-09-22 20:32:44.775829,0.04150390625,0.11474609375,1.11083984375,2.625732421875,-2.1533203125,12.1234130859375
2021-09-22 20:32:44.785896,0.03076171875,0.076171875,0.99169921875,2.757568359375,-2.1478271484375,12.0355224609375
2021-09-22 20:32:44.795825,0.0517578125,0.0947265625,1.04052734375,2.801513671875,-2.1588134765625,11.97509765625
2021-09-22 20:32:44.805753,0.0263671875,0.04248046875,1.04248046875,2.7685546875,-2.197265625,11.9476318359375
2021-09-22 20:32:44.815812,0.0400390625,0.068359375,1.0302734375,2.6861572265625,-2.252197265625,11.942138671875
2021-09-22 20:32:44.825721,0.03125,0.052734375,1.01318359375,2.57080078125,-2.296142578125,11.9805908203125
2021-09-22 20:32:44.836140,0.017578125,0.04345703125,1.01171875,2.4224853515625,-2.3016357421875,12.030029296875
2021-09-22 20:32:44.845677,0.02392578125,0.06005859375,0.97314453125,2.2686767578125,-2.2906494140625,12.0684814453125
2021-09-22 20:32:44.855501,0.03662109375,0.05029296875,0.93896484375,2.08740234375,-2.26318359375,12.0794677734375
2021-09-22 20:32:44.865563,-0.00634765625,-0.0009765625,0.96142578125,1.878662109375,-2.197265625,12.0574951171875
2021-09-22 20:32:44.875575,0.0302734375,0.029296875,0.95263671875,1.658935546875,-2.1478271484375,12.0135498046875
2021-09-22 20:32:44.885444,0.0478515625,0.09423828125,0.94970703125,1.4556884765625,-2.1258544921875,11.97509765625
2021-09-22 20:32:44.895355,-0.0029296875,0.013671875,0.939453125,1.2579345703125,-2.0819091796875,11.964111328125
2021-09-22 20:32:44.905367,-0.00390625,0.03662109375,0.97802734375,1.065673828125,-2.032470703125,12.008056640625
2021-09-22 20:32:44.915635,0.02392578125,0.025390625,0.95947265625,0.889892578125,-1.966552734375,12.0794677734375
2021-09-22 20:32:44.925999,-0.0224609375,0.05859375,1.04345703125,0.7415771484375,-1.8731689453125,12.1453857421875
2021-09-22 20:32:44.936055,-0.0361328125,-0.03076171875,1.05419921875,0.6207275390625,-1.790771484375,12.1893310546875
2021-09-22 20:32:44.945886,-0.00537109375,0.0205078125,1.08935546875,0.4998779296875,-1.7083740234375,12.183837890625
2021-09-22 20:32:44.955677,-0.00341796875,0.02099609375,1.0615234375,0.384521484375,-1.64794921875,12.1234130859375
2021-09-22 20:32:44.965860,0.0078125,-0.01318359375,1.0439453125,0.252685546875,-1.614990234375,12.052001953125
2021-09-22 20:32:44.975671,0.0517578125,-0.01953125,0.9833984375,0.120849609375,-1.636962890625,11.986083984375
2021-09-22 20:32:44.985668,0.04345703125,-0.02734375,1.037109375,0.0054931640625,-1.669921875,11.9146728515625
2021-09-22 20:32:44.995875,0.052734375,-0.0361328125,1.06396484375,-0.054931640625,-1.7413330078125,11.84326171875
2021-09-22 20:32:45.005271,0.0400390625,-0.03271484375,1.01513671875,-0.0933837890625,-1.82373046875,11.7608642578125
2021-09-22 20:32:45.015516,0.0166015625,-0.00830078125,0.966796875,-0.0823974609375,-1.8951416015625,11.678466796875
2021-09-22 20:32:45.025458,0.03564453125,-0.00048828125,0.92431640625,-0.0439453125,-1.9720458984375,11.6070556640625
2021-09-22 20:32:45.035547,0.0205078125,0.03564453125,0.958984375,0.0274658203125,-2.021484375,11.5576171875
2021-09-22 20:32:45.045607,0.0546875,0.04052734375,0.97021484375,0.15380859375,-2.0654296875,11.5576171875
2021-09-22 20:32:45.055585,0.09423828125,0.0244140625,0.8564453125,0.263671875,-2.1258544921875,11.590576171875
2021-09-22 20:32:45.065321,0.068359375,-0.01904296875,0.9619140625,0.3570556640625,-2.1588134765625,11.6070556640625
2021-09-22 20:32:45.075252,0.0712890625,-0.03271484375,0.935546875,0.450439453125,-2.17529296875,11.6290283203125
2021-09-22 20:32:45.085307,0.0537109375,-0.01513671875,0.986328125,0.538330078125,-2.164306640625,11.62353515625
2021-09-22 20:32:45.095262,0.04541015625,0.02197265625,0.984375,0.6536865234375,-2.1368408203125,11.590576171875
2021-09-22 20:32:45.105176,0.0439453125,0.0078125,0.921875,0.76904296875,-2.076416015625,11.546630859375
2021-09-22 20:32:45.114968,0.04248046875,0.0185546875,1.04736328125,0.8734130859375,-1.988525390625,11.5191650390625
2021-09-22 20:32:45.125180,0.0419921875,0.0615234375,1.11279296875,0.94482421875,-1.9061279296875,11.502685546875
2021-09-22 20:32:45.135116,0.029296875,0.0244140625,0.99267578125,0.9832763671875,-1.834716796875,11.4862060546875
2021-09-22 20:32:45.145367,0.0537109375,0.0556640625,1.041015625,0.9613037109375,-1.7852783203125,11.4971923828125
2021-09-22 20:32:45.155212,0.029296875,0.015625,1.091796875,0.911865234375,-1.73583984375,11.524658203125
2021-09-22 20:32:45.165126,0.0517578125,0.0478515625,1.0673828125,0.8404541015625,-1.6973876953125,11.5576171875
2021-09-22 20:32:45.175015,0.04443359375,0.01611328125,1.02978515625,0.758056640625,-1.6534423828125,11.6015625
2021-09-22 20:32:45.184753,0.02001953125,-0.001953125,1.01123046875,0.63720703125,-1.5985107421875,11.6400146484375
2021-09-22 20:32:45.194643,0.01416015625,0.0029296875,1.00244140625,0.50537109375,-1.549072265625,11.6619873046875
2021-09-22 20:32:45.204457,0.01904296875,-0.00146484375,0.9580078125,0.3570556640625,-1.5106201171875,11.656494140625
2021-09-22 20:32:45.214309,-0.021484375,-0.05419921875,0.99560546875,0.1812744140625,-1.461181640625,11.62353515625
2021-09-22 20:32:45.224983,0.0126953125,-0.01318359375,1.005859375,0.0164794921875,-1.42822265625,11.568603515625
2021-09-22 20:32:45.234332,0.03955078125,0.0625,0.98974609375,-0.1153564453125,-1.4337158203125,11.5191650390625
2021-09-22 20:32:45.244255,-0.001953125,-0.01708984375,0.99609375,-0.2252197265625,-1.4227294921875,11.502685546875
2021-09-22 20:32:45.254259,0.0166015625,-0.0078125,1.01123046875,-0.3240966796875,-1.417236328125,11.5576171875
2021-09-22 20:32:45.264227,0.04541015625,-0.01708984375,0.99267578125,-0.406494140625,-1.40625,11.6455078125
2021-09-22 20:32:45.274237,0.0068359375,0.0322265625,1.04833984375,-0.4449462890625,-1.3677978515625,11.7498779296875
2021-09-22 20:32:45.284178,-0.0078125,-0.0263671875,1.07177734375,-0.4229736328125,-1.3348388671875,11.832275390625
2021-09-22 20:32:45.294120,0.05224609375,-0.0048828125,1.1943359375,-0.3460693359375,-1.329345703125,11.854248046875
2021-09-22 20:32:45.304165,0.04541015625,0.03076171875,1.07861328125,-0.1812744140625,-1.329345703125,11.7938232421875
2021-09-22 20:32:45.314135,0.0703125,-0.03955078125,1.12646484375,0.0384521484375,-1.38427734375,11.689453125
2021-09-22 20:32:45.324027,0.04736328125,-0.0322265625,1.01708984375,0.3021240234375,-1.4666748046875,11.5576171875
2021-09-22 20:32:45.333868,0.060546875,-0.02587890625,1.03076171875,0.59326171875,-1.56005859375,11.414794921875
2021-09-22 20:32:45.344085,0.05810546875,-0.0419921875,1.103515625,0.933837890625,-1.6864013671875,11.27197265625
2021-09-22 20:32:45.354014,0.0556640625,-0.03857421875,0.9921875,1.2908935546875,-1.8292236328125,11.107177734375
2021-09-22 20:32:45.363901,0.0439453125,-0.18359375,1.02978515625,1.5875244140625,-1.9610595703125,10.931396484375
2021-09-22 20:32:45.373784,0.1123046875,0.1474609375,1.12158203125,1.8896484375,-2.054443359375,10.810546875
2021-09-22 20:32:45.383677,0.1181640625,0.107421875,1.0771484375,1.99951171875,-2.1038818359375,10.689697265625
2021-09-22 20:32:45.393797,0.06884765625,0.20654296875,1.2275390625,1.922607421875,-2.1533203125,10.6072998046875
2021-09-22 20:32:45.403675,0.11865234375,0.16943359375,0.87158203125,1.702880859375,-2.230224609375,10.5633544921875
2021-09-22 20:32:45.413628,0.052734375,0.0869140625,1.0234375,1.3458251953125,-2.2906494140625,10.491943359375
2021-09-22 20:32:45.423976,0.09228515625,-0.0029296875,0.9833984375,0.9283447265625,-2.406005859375,10.4095458984375
2021-09-22 20:32:45.433709,0.04736328125,-0.046875,1.01220703125,0.472412109375,-2.537841796875,10.338134765625
2021-09-22 20:32:45.443642,0.05859375,-0.04150390625,0.90966796875,0.0384521484375,-2.7081298828125,10.2996826171875
2021-09-22 20:32:45.453502,0.080078125,0.072265625,0.990234375,-0.28564453125,-2.889404296875,10.34912109375
2021-09-22 20:32:45.463631,0.0478515625,0.07275390625,1.04052734375,-0.54931640625,-3.043212890625,10.5084228515625
2021-09-22 20:32:45.473473,0.03515625,0.083984375,1.0390625,-0.758056640625,-3.1915283203125,10.74462890625
2021-09-22 20:32:45.483388,0.01123046875,0.04541015625,1.00244140625,-0.933837890625,-3.284912109375,11.019287109375
2021-09-22 20:32:45.493298,0.0400390625,0.04638671875,1.05712890625,-1.065673828125,-3.31787109375,11.326904296875
2021-09-22 20:32:45.503386,0.01416015625,0.00341796875,0.95849609375,-1.142578125,-3.3123779296875,11.6290283203125
2021-09-22 20:32:45.513455,0.05908203125,0.046875,0.92431640625,-1.16455078125,-3.2794189453125,11.93115234375
2021-09-22 20:32:45.523306,0.02294921875,-0.01611328125,0.900390625,-1.142578125,-3.2025146484375,12.2332763671875
2021-09-22 20:32:45.533137,-0.015625,-0.046875,0.8427734375,-1.1151123046875,-3.0926513671875,12.513427734375
2021-09-22 20:32:45.543247,0.00341796875,-0.05126953125,0.80908203125,-1.065673828125,-2.9827880859375,12.7276611328125
2021-09-22 20:32:45.553181,0.02880859375,-0.0244140625,0.8134765625,-0.999755859375,-2.87841796875,12.8759765625
2021-09-22 20:32:45.563119,0.02294921875,-0.07080078125,0.8837890625,-0.966796875,-2.757568359375,12.94189453125
2021-09-22 20:32:45.572983,-0.00390625,-0.06689453125,0.880859375,-0.9942626953125,-2.5927734375,12.952880859375
2021-09-22 20:32:45.583087,0.02490234375,-0.0634765625,0.880859375,-1.0491943359375,-2.39501953125,12.9364013671875
2021-09-22 20:32:45.592973,-0.009765625,-0.0947265625,1.03125,-1.03271484375,-2.164306640625,12.9254150390625
2021-09-22 20:32:45.603355,0.033203125,-0.0517578125,0.7314453125,-0.9228515625,-1.93359375,12.930908203125
2021-09-22 20:32:45.613104,0.04345703125,-0.01708984375,0.8369140625,-0.703125,-1.7303466796875,12.9693603515625
2021-09-22 20:32:45.622959,0.00390625,-0.046875,0.95166015625,-0.3515625,-1.5325927734375,12.9693603515625
2021-09-22 20:32:45.632885,0.03125,-0.1015625,0.9130859375,0.0384521484375,-1.38427734375,12.8814697265625
2021-09-22 20:32:45.642794,0.1103515625,-0.11767578125,1.099609375,0.450439453125,-1.2579345703125,12.65625
2021-09-22 20:32:45.652876,0.02978515625,0.07666015625,1.1787109375,0.6317138671875,-1.2579345703125,12.381591796875
2021-09-22 20:32:45.662859,0.189453125,0.07080078125,1.314453125,0.604248046875,-1.4886474609375,12.1343994140625
2021-09-22 20:32:45.672946,0.1689453125,0.13037109375,1.70654296875,0.439453125,-1.7303466796875,11.9476318359375
2021-09-22 20:32:45.682681,0.154296875,-0.0830078125,1.5068359375,0.560302734375,-1.944580078125,11.7718505859375
2021-09-22 20:32:45.692918,0.154296875,-0.08203125,1.23828125,0.8184814453125,-2.1807861328125,11.5411376953125
2021-09-22 20:32:45.702710,0.07177734375,-0.07275390625,1.263671875,1.1151123046875,-2.4169921875,11.2884521484375
2021-09-22 20:32:45.712581,0.02978515625,-0.0673828125,1.2685546875,1.3568115234375,-2.581787109375,11.0797119140625
2021-09-22 20:32:45.723123,-0.02685546875,-0.005859375,0.76904296875,1.395263671875,-2.6422119140625,10.8929443359375
2021-09-22 20:32:45.732418,-0.0263671875,0.00390625,0.83544921875,1.439208984375,-2.57080078125,10.6842041015625
2021-09-22 20:32:45.742483,-0.0625,0.09619140625,0.5791015625,1.395263671875,-2.4005126953125,10.458984375
2021-09-22 20:32:45.752412,0.03466796875,0.10986328125,0.5576171875,1.3238525390625,-2.120361328125,10.184326171875
2021-09-22 20:32:45.762305,-0.072265625,0.1083984375,0.69775390625,1.175537109375,-1.834716796875,9.854736328125
2021-09-22 20:32:45.772425,-0.0517578125,-0.005859375,0.5732421875,1.0711669921875,-1.5325927734375,9.4976806640625
2021-09-22 20:32:45.782452,-0.00048828125,0.0263671875,0.6708984375,0.9173583984375,-1.197509765625,9.1571044921875
2021-09-22 20:32:45.792346,0.0712890625,0.10498046875,1.12158203125,0.8074951171875,-0.8404541015625,8.8714599609375
2021-09-22 20:32:45.802250,0.11865234375,0.1259765625,1.1953125,0.8843994140625,-0.5712890625,8.646240234375
2021-09-22 20:32:45.812299,0.25146484375,0.0634765625,1.328125,1.065673828125,-0.406494140625,8.5089111328125
2021-09-22 20:32:45.822268,0.22509765625,0.046875,1.20458984375,1.153564453125,-0.3515625,8.45947265625
2021-09-22 20:32:45.832160,0.33837890625,0.1181640625,1.552734375,1.0382080078125,-0.406494140625,8.50341796875
2021-09-22 20:32:45.842191,0.38525390625,0.1787109375,1.39794921875,0.7470703125,-0.626220703125,8.6297607421875
2021-09-22 20:32:45.852072,0.34912109375,0.14208984375,1.1787109375,0.4833984375,-1.0107421875,8.8385009765625
2021-09-22 20:32:45.862266,0.28466796875,0.1259765625,1.15185546875,0.252685546875,-1.483154296875,9.107666015625
2021-09-22 20:32:45.871993,0.263671875,0.0869140625,0.81591796875,0.02197265625,-1.9390869140625,9.4482421875
2021-09-22 20:32:45.882069,0.15576171875,0.02978515625,0.62158203125,-0.2362060546875,-2.3291015625,9.854736328125
2021-09-22 20:32:45.891983,0.09521484375,0.06396484375,0.517578125,-0.4888916015625,-2.625732421875,10.294189453125
2021-09-22 20:32:45.901923,-0.0283203125,0.197265625,0.484375,-0.692138671875,-2.8289794921875,10.7061767578125
2021-09-22 20:32:45.912018,-0.1904296875,-0.01611328125,0.8203125,-0.5987548828125,-2.867431640625,11.0687255859375
2021-09-22 20:32:45.921845,-0.138671875,-0.0791015625,0.79443359375,-0.472412109375,-2.6202392578125,11.44775390625
2021-09-22 20:32:45.931809,-0.068359375,0.001953125,0.5634765625,-0.2911376953125,-2.164306640625,11.788330078125
2021-09-22 20:32:45.941877,-0.13916015625,-0.1533203125,0.62255859375,0.0823974609375,-1.483154296875,12.052001953125
2021-09-22 20:32:45.951707,0.03466796875,-0.138671875,1.72802734375,0.1812744140625,-0.703125,12.293701171875
2021-09-22 20:32:45.961823,0.302734375,0.3447265625,1.6142578125,-0.02197265625,-0.2362060546875,12.5848388671875
2021-09-22 20:32:45.971708,0.150390625,0.244140625,1.853515625,0.1153564453125,-0.296630859375,12.974853515625
2021-09-22 20:32:45.981605,-0.20703125,0.04541015625,1.32177734375,0.3680419921875,-0.791015625,13.5186767578125
2021-09-22 20:32:45.991678,-0.32275390625,-0.18603515625,0.81884765625,0.4339599609375,-1.4337158203125,14.183349609375
2021-09-22 20:32:46.001556,-0.1181640625,-0.046875,0.95068359375,0.274658203125,-2.0050048828125,14.8040771484375
2021-09-22 20:32:46.011512,0.24658203125,-0.099609375,1.1455078125,0.384521484375,-2.35107421875,15.2545166015625
2021-09-22 20:32:46.021500,0.384765625,-0.1728515625,1.55029296875,0.72509765625,-2.6971435546875,15.435791015625
2021-09-22 20:32:46.031712,0.35009765625,-0.12451171875,1.0751953125,1.03271484375,-3.2904052734375,15.3643798828125
2021-09-22 20:32:46.041531,0.10498046875,-0.16357421875,1.25439453125,1.329345703125,-3.9935302734375,15.1446533203125
2021-09-22 20:32:46.051413,-0.26171875,-0.04052734375,1.20263671875,1.4886474609375,-4.471435546875,14.8480224609375
2021-09-22 20:32:46.061367,-0.20849609375,-0.18359375,1.75537109375,1.69189453125,-4.625244140625,14.4744873046875
2021-09-22 20:32:46.071413,-0.16259765625,0.154296875,1.1806640625,1.4337158203125,-4.37255859375,14.0185546875
2021-09-22 20:32:46.081313,-0.048828125,0.0322265625,0.70068359375,1.197509765625,-3.768310546875,13.458251953125
2021-09-22 20:32:46.091218,0.09130859375,0.10400390625,0.1015625,0.8184814453125,-3.065185546875,12.9034423828125
2021-09-22 20:32:46.101426,-0.17626953125,0.01708984375,0.251953125,0.4833984375,-2.26318359375,12.3760986328125
2021-09-22 20:32:46.111318,-0.1640625,0.03759765625,0.5615234375,0.4669189453125,-1.461181640625,11.854248046875
2021-09-22 20:32:46.121220,-0.1357421875,0.0517578125,1.0947265625,0.736083984375,-0.7470703125,11.35986328125
2021-09-22 20:32:46.131105,-0.24072265625,-0.26904296875,1.48388671875,1.12060546875,-0.2362060546875,10.9259033203125
2021-09-22 20:32:46.141197,-0.20751953125,-0.1669921875,1.3134765625,1.197509765625,0.1593017578125,10.5963134765625
2021-09-22 20:32:46.151144,0.26220703125,0.14892578125,1.083984375,1.3238525390625,0.4449462890625,10.3765869140625
2021-09-22 20:32:46.161076,0.40966796875,0.0439453125,0.681640625,1.6864013671875,0.4339599609375,10.3765869140625
2021-09-22 20:32:46.171146,0.33203125,-0.14453125,1.173828125,1.8951416015625,0.296630859375,10.5908203125
2021-09-22 20:32:46.181022,0.5166015625,0.12158203125,1.17333984375,1.5380859375,0.0933837890625,10.9368896484375
2021-09-22 20:32:46.191043,0.75146484375,0.23974609375,0.84228515625,0.9942626953125,-0.318603515625,11.3433837890625
2021-09-22 20:32:46.201086,0.54150390625,0.1796875,0.78271484375,0.626220703125,-1.1700439453125,11.810302734375
2021-09-22 20:32:46.211005,0.34375,0.00439453125,1.07275390625,0.4010009765625,-2.28515625,12.2991943359375
2021-09-22 20:32:46.221597,0.11962890625,0.0693359375,0.857421875,-0.1318359375,-3.427734375,12.7496337890625
2021-09-22 20:32:46.230641,-0.23681640625,0.45458984375,0.83154296875,-0.9173583984375,-4.4219970703125,13.1231689453125
2021-09-22 20:32:46.240872,-0.4384765625,0.27978515625,1.7197265625,-1.175537109375,-5.0482177734375,13.414306640625
2021-09-22 20:32:46.250620,-0.4990234375,0.11328125,1.6328125,-1.1920166015625,-5.0921630859375,13.60107421875
2021-09-22 20:32:46.260715,-0.3515625,0.02783203125,0.9453125,-1.043701171875,-4.5977783203125,13.656005859375
2021-09-22 20:32:46.270799,-0.0517578125,-0.0615234375,0.5126953125,-0.703125,-3.592529296875,13.6175537109375
2021-09-22 20:32:46.280728,0.1103515625,0.21142578125,0.228515625,-0.362548828125,-2.5653076171875,13.4967041015625
2021-09-22 20:32:46.290877,-0.01953125,-0.0361328125,0.29931640625,0.3076171875,-1.571044921875,13.216552734375
2021-09-22 20:32:46.300635,-0.17578125,-0.2294921875,1.087890625,0.692138671875,-0.5328369140625,12.83203125
2021-09-22 20:32:46.310460,0.173828125,0.49609375,1.1357421875,0.3076171875,0.2471923828125,12.557373046875
2021-09-22 20:32:46.320608,0.2333984375,0.30419921875,1.4560546875,0.28564453125,0.4998779296875,12.5189208984375
2021-09-22 20:32:46.330516,-0.26123046875,0.1201171875,1.5126953125,0.28564453125,0.2691650390625,12.843017578125
2021-09-22 20:32:46.340398,-0.22998046875,-0.01708984375,0.64453125,0.2142333984375,-0.186767578125,13.3978271484375
2021-09-22 20:32:46.350479,0.02490234375,0.1513671875,0.8720703125,0.0439453125,-0.5657958984375,13.9691162109375
2021-09-22 20:32:46.360356,0.28564453125,0.021484375,1.16943359375,0.1483154296875,-0.8514404296875,14.381103515625
2021-09-22 20:32:46.370389,0.384765625,-0.13427734375,1.5234375,0.428466796875,-1.25244140625,14.578857421875
2021-09-22 20:32:46.380275,0.298828125,0.00341796875,1.05859375,0.604248046875,-1.922607421875,14.5843505859375
2021-09-22 20:32:46.390394,0.14306640625,-0.0693359375,0.947265625,0.9722900390625,-2.6751708984375,14.4525146484375
2021-09-22 20:32:46.400159,0.01611328125,-0.27783203125,1.36328125,1.3677978515625,-3.3563232421875,14.3316650390625
2021-09-22 20:32:46.410270,-0.33251953125,-0.10986328125,1.32177734375,1.5325927734375,-3.7738037109375,14.23828125
2021-09-22 20:32:46.420144,-0.42529296875,-0.21826171875,1.35888671875,1.494140625,-3.8232421875,14.0679931640625
2021-09-22 20:32:46.430173,-0.333984375,0.013671875,0.78662109375,1.1590576171875,-3.3563232421875,13.7933349609375
2021-09-22 20:32:46.440266,-0.10302734375,0.0595703125,0.287109375,0.8624267578125,-2.493896484375,13.4307861328125
2021-09-22 20:32:46.450145,0.04541015625,0.037109375,0.5244140625,0.582275390625,-1.6314697265625,13.0902099609375
2021-09-22 20:32:46.459993,-0.02880859375,-0.04931640625,0.83740234375,0.4833984375,-1.0162353515625,12.7825927734375
2021-09-22 20:32:46.469899,-0.17529296875,-0.23583984375,1.076171875,0.6591796875,-0.6536865234375,12.50244140625
2021-09-22 20:32:46.479959,-0.36083984375,-0.24267578125,0.8271484375,0.7745361328125,-0.4669189453125,12.249755859375
2021-09-22 20:32:46.490028,-0.171875,0.037109375,1.0849609375,0.8349609375,-0.340576171875,12.0849609375
2021-09-22 20:32:46.499822,0.06005859375,-0.0029296875,0.59716796875,1.1260986328125,-0.2691650390625,12.073974609375
2021-09-22 20:32:46.509983,0.16259765625,-0.134765625,1.07421875,1.29638671875,-0.2197265625,12.2003173828125
2021-09-22 20:32:46.519917,0.33544921875,0.0595703125,1.525390625,0.999755859375,-0.2197265625,12.4420166015625
2021-09-22 20:32:46.529872,0.67529296875,0.185546875,1.13916015625,0.5712890625,-0.4119873046875,12.7606201171875
2021-09-22 20:32:46.539858,0.67578125,0.08349609375,1.0771484375,0.2911376953125,-1.0601806640625,13.11767578125
2021-09-22 20:32:46.549794,0.4892578125,-0.1162109375,1.11669921875,0.0494384765625,-2.054443359375,13.5296630859375
2021-09-22 20:32:46.559874,0.41455078125,-0.01220703125,1.15283203125,-0.5218505859375,-3.1805419921875,13.9471435546875
2021-09-22 20:32:46.569799,0.3173828125,0.3115234375,0.90087890625,-1.34033203125,-4.3450927734375,14.337158203125
2021-09-22 20:32:46.579699,-0.35986328125,0.361328125,1.734375,-2.0159912109375,-5.5206298828125,14.6942138671875
2021-09-22 20:32:46.589451,-0.47998046875,-0.06396484375,2.259765625,-2.120361328125,-6.1907958984375,15.0457763671875
2021-09-22 20:32:46.599536,-0.56591796875,0.14111328125,0.92529296875,-2.3126220703125,-6.3446044921875,15.31494140625
2021-09-22 20:32:46.609748,-0.271484375,-0.25,0.8623046875,-2.08740234375,-5.789794921875,15.479736328125
2021-09-22 20:32:46.619684,-0.0126953125,0.0908203125,-0.126953125,-1.9940185546875,-4.921875,15.5950927734375
2021-09-22 20:32:46.629513,0.08935546875,-0.00244140625,0.5478515625,-1.6754150390625,-4.02099609375,15.6005859375
2021-09-22 20:32:46.639470,-0.02978515625,-0.1826171875,0.1865234375,-1.241455078125,-3.2354736328125,15.5072021484375
2021-09-22 20:32:46.649536,-0.1318359375,-0.14990234375,0.20947265625,-0.911865234375,-2.3236083984375,15.4083251953125
2021-09-22 20:32:46.659625,-0.0009765625,0.01953125,0.12158203125,-0.5987548828125,-1.285400390625,15.3533935546875
2021-09-22 20:32:46.669343,0.39892578125,-0.0361328125,1.38671875,-0.2252197265625,-0.24169921875,15.4248046875
2021-09-22 20:32:46.679434,0.31298828125,0.240234375,1.87646484375,-0.24169921875,0.2032470703125,15.6610107421875
2021-09-22 20:32:46.689473,0.12646484375,0.3408203125,2.41259765625,-0.2471923828125,-0.0933837890625,16.094970703125
2021-09-22 20:32:46.699356,-0.13818359375,0.13818359375,2.263671875,-0.0823974609375,-0.703125,16.72119140625
2021-09-22 20:32:46.709180,0.142578125,-0.0537109375,1.1943359375,0.1318359375,-1.3897705078125,17.3858642578125
2021-09-22 20:32:46.719794,0.29296875,-0.05224609375,0.95068359375,0.3021240234375,-2.2247314453125,17.8912353515625
2021-09-22 20:32:46.729201,0.3544921875,-0.3955078125,1.15966796875,0.692138671875,-3.1365966796875,18.0999755859375
2021-09-22 20:32:46.739269,0.0927734375,-0.2255859375,1.75927734375,1.1480712890625,-4.031982421875,18.1329345703125
2021-09-22 20:32:46.749037,-0.17724609375,-0.37744140625,0.6025390625,1.60400390625,-4.822998046875,17.9022216796875
2021-09-22 20:32:46.759188,-0.4228515625,-0.25341796875,1.45947265625,1.6973876953125,-5.2294921875,17.42431640625
2021-09-22 20:32:46.769040,-0.234375,0.0087890625,0.9697265625,1.571044921875,-5.152587890625,16.7816162109375
2021-09-22 20:32:46.779086,-0.17041015625,-0.0390625,0.6923828125,1.5216064453125,-4.5977783203125,16.0015869140625
2021-09-22 20:32:46.789070,-0.1181640625,0.17724609375,0.18408203125,1.29638671875,-3.790283203125,15.172119140625
2021-09-22 20:32:46.799239,-0.04443359375,0.146484375,0.06640625,1.131591796875,-2.8179931640625,14.30419921875
2021-09-22 20:32:46.809092,-0.1142578125,0.3681640625,0.42236328125,1.0107421875,-1.746826171875,13.4197998046875
2021-09-22 20:32:46.818813,0.02783203125,-0.04296875,0.77880859375,1.4007568359375,-0.7745361328125,12.5079345703125
2021-09-22 20:32:46.828705,-0.12646484375,0.0791015625,1.89697265625,1.5106201171875,-0.15380859375,11.7279052734375
2021-09-22 20:32:46.838827,-0.03271484375,-0.15673828125,1.80419921875,1.7413330078125,0.19775390625,11.14013671875
2021-09-22 20:32:46.848738,0.1787109375,-0.0146484375,1.07275390625,1.8621826171875,0.28564453125,10.70068359375
2021-09-22 20:32:46.858679,0.37744140625,0.0888671875,0.93212890625,1.9940185546875,0.1153564453125,10.4315185546875
2021-09-22 20:32:46.868730,0.42236328125,-0.08837890625,0.95361328125,2.1533203125,-0.1483154296875,10.469970703125
2021-09-22 20:32:46.878769,0.4423828125,0.13623046875,1.423828125,1.8017578125,-0.5328369140625,10.7611083984375
2021-09-22 20:32:46.888694,0.57568359375,0.2255859375,0.76904296875,1.2359619140625,-1.021728515625,11.162109375
2021-09-22 20:32:46.898754,0.5205078125,0.228515625,0.83056640625,0.714111328125,-1.834716796875,11.66748046875
2021-09-22 20:32:46.908769,0.3701171875,0.11181640625,0.83642578125,0.362548828125,-2.911376953125,12.249755859375
2021-09-22 20:32:46.918562,0.1728515625,0.06103515625,0.9384765625,-0.098876953125,-4.0594482421875,12.8265380859375
2021-09-22 20:32:46.928481,-0.20703125,0.552734375,0.75341796875,-0.867919921875,-5.086669921875,13.348388671875
2021-09-22 20:32:46.938324,-0.45654296875,0.23388671875,1.62060546875,-1.197509765625,-5.7403564453125,13.7713623046875
2021-09-22 20:32:46.948424,-0.48388671875,0.07373046875,1.9130859375,-1.2579345703125,-5.7403564453125,14.1119384765625
2021-09-22 20:32:46.958320,-0.34716796875,0.033203125,1.01806640625,-1.2249755859375,-5.2459716796875,14.337158203125
2021-09-22 20:32:46.968400,-0.029296875,-0.16015625,0.515625,-0.87890625,-4.229736328125,14.447021484375
2021-09-22 20:32:46.978317,0.14501953125,0.1474609375,0.2607421875,-0.5328369140625,-3.1695556640625,14.4580078125
2021-09-22 20:32:46.988540,0.01171875,0.029296875,0.39599609375,0.1153564453125,-2.1697998046875,14.2987060546875
2021-09-22 20:32:46.998318,-0.16015625,-0.28564453125,0.142578125,0.68115234375,-1.1370849609375,14.0350341796875
2021-09-22 20:32:47.008429,0.11376953125,0.18212890625,0.77197265625,0.472412109375,-0.2032470703125,13.8427734375
2021-09-22 20:32:47.018126,0.31689453125,0.3798828125,1.046875,0.24169921875,0.2581787109375,13.8482666015625
2021-09-22 20:32:47.028378,-0.16845703125,0.125,1.88525390625,0.2362060546875,0.1812744140625,14.1668701171875
2021-09-22 20:32:47.038161,-0.21435546875,0.103515625,1.2314453125,0.208740234375,-0.24169921875,14.7491455078125
2021-09-22 20:32:47.048103,0.0537109375,0.0185546875,1.22607421875,0.1922607421875,-0.6427001953125,15.413818359375
2021-09-22 20:32:47.058211,0.18505859375,0.05419921875,1.1494140625,0.120849609375,-1.1370849609375,15.9356689453125
2021-09-22 20:32:47.068103,0.3017578125,-0.1357421875,1.40087890625,0.2911376953125,-1.6424560546875,16.1993408203125
2021-09-22 20:32:47.077965,0.3447265625,-0.1220703125,1.33154296875,0.5877685546875,-2.230224609375,16.1993408203125
2021-09-22 20:32:47.087896,0.3173828125,-0.4150390625,0.9111328125,0.9832763671875,-2.9608154296875,15.9906005859375
2021-09-22 20:32:47.098013,-0.12158203125,-0.14990234375,1.453125,1.2249755859375,-3.6859130859375,15.7489013671875
2021-09-22 20:32:47.107785,-0.28564453125,-0.20556640625,1.30078125,1.3238525390625,-4.1253662109375,15.4522705078125
2021-09-22 20:32:47.117917,-0.39501953125,-0.27099609375,1.32080078125,1.285400390625,-4.0594482421875,15.1007080078125
2021-09-22 20:32:47.127874,-0.21875,-0.03173828125,0.671875,0.955810546875,-3.5760498046875,14.69970703125
2021-09-22 20:32:47.138425,-0.02685546875,-0.0947265625,0.4365234375,0.68115234375,-2.7301025390625,14.249267578125
2021-09-22 20:32:47.148379,0.0673828125,0.06494140625,0.54345703125,0.5218505859375,-1.9390869140625,13.875732421875
2021-09-22 20:32:47.158307,-0.03466796875,-0.0126953125,0.80615234375,0.5767822265625,-1.38427734375,13.5406494140625
2021-09-22 20:32:47.167981,-0.28125,-0.2099609375,0.92529296875,0.845947265625,-1.021728515625,13.238525390625
2021-09-22 20:32:47.178190,-0.37548828125,-0.20263671875,0.90576171875,0.955810546875,-0.791015625,12.9638671875
2021-09-22 20:32:47.188038,-0.1630859375,0.13818359375,0.8955078125,1.0107421875,-0.560302734375,12.777099609375
2021-09-22 20:32:47.197990,0.064453125,0.05029296875,0.39892578125,1.373291015625,-0.3955078125,12.733154296875
2021-09-22 20:32:47.207860,0.15478515625,-0.14208984375,1.03271484375,1.6644287109375,-0.263671875,12.8265380859375
2021-09-22 20:32:47.218386,0.36279296875,0.0830078125,1.43212890625,1.4556884765625,-0.142822265625,13.0517578125
2021-09-22 20:32:47.230460,0.72998046875,0.20166015625,1.13330078125,1.0546875,-0.1922607421875,13.33740234375
2021-09-22 20:32:47.238154,0.72119140625,0.08251953125,1.14111328125,0.81298828125,-0.692138671875,13.6505126953125
2021-09-22 20:32:47.248084,0.54248046875,-0.0927734375,1.16162109375,0.6317138671875,-1.5655517578125,14.029541015625
2021-09-22 20:32:47.257964,0.45751953125,-0.0283203125,1.17529296875,0.1483154296875,-2.5982666015625,14.4140625
2021-09-22 20:32:47.267747,0.36962890625,0.056640625,0.962890625,-0.615234375,-3.680419921875,14.7711181640625
2021-09-22 20:32:47.277590,-0.29150390625,0.2734375,1.0283203125,-1.4556884765625,-4.81201171875,15.0897216796875
2021-09-22 20:32:47.287573,-0.5615234375,0.0185546875,2.04345703125,-1.60400390625,-5.6304931640625,15.3753662109375
2021-09-22 20:32:47.297482,-0.6162109375,0.1171875,0.93603515625,-1.680908203125,-5.7843017578125,15.611572265625
2021-09-22 20:32:47.307411,-0.38720703125,-0.103515625,0.80615234375,-1.6204833984375,-5.3448486328125,15.75439453125
2021-09-22 20:32:47.317203,0.0205078125,-0.06689453125,0.443359375,-1.417236328125,-4.4439697265625,15.8477783203125
2021-09-22 20:32:47.327427,0.11669921875,0.18115234375,0.43115234375,-1.1590576171875,-3.4991455078125,15.8367919921875
2021-09-22 20:32:47.337379,-0.0419921875,-0.15478515625,-0.03271484375,-0.615234375,-2.724609375,15.66650390625
2021-09-22 20:32:47.347281,-0.25830078125,-0.1728515625,0.12353515625,-0.2142333984375,-1.8511962890625,15.4852294921875
2021-09-22 20:32:47.357561,0.1455078125,-0.18408203125,-0.05908203125,0.06591796875,-0.8184814453125,15.3424072265625
2021-09-22 20:32:47.367432,0.341796875,0.33642578125,0.99951171875,-0.1043701171875,0.0054931640625,15.3973388671875
2021-09-22 20:32:47.377281,0.2783203125,0.26513671875,1.6533203125,-0.1263427734375,0.24169921875,15.699462890625
2021-09-22 20:32:47.386801,-0.1787109375,0.21630859375,2.1650390625,-0.076904296875,-0.1153564453125,16.270751953125
2021-09-22 20:32:47.397260,-0.056640625,0.16748046875,1.7421875,0.06591796875,-0.6756591796875,16.995849609375
2021-09-22 20:32:47.407130,0.22509765625,-0.04541015625,1.17626953125,0.2471923828125,-1.3018798828125,17.7044677734375
2021-09-22 20:32:47.417032,0.28564453125,-0.00341796875,1.16796875,0.3570556640625,-2.098388671875,18.1988525390625
2021-09-22 20:32:47.426975,0.330078125,-0.3447265625,1.3955078125,0.802001953125,-2.9388427734375,18.39111328125
2021-09-22 20:32:47.436827,0.22802734375,-0.36083984375,1.79443359375,1.2359619140625,-3.8287353515625,18.3966064453125
2021-09-22 20:32:47.446943,-0.14990234375,-0.18212890625,0.7041015625,1.5435791015625,-4.5263671875,18.1768798828125
2021-09-22 20:32:47.456855,-0.3466796875,-0.36767578125,1.4580078125,1.8292236328125,-4.9658203125,17.7484130859375
2021-09-22 20:32:47.466812,-0.2705078125,0.0771484375,1.3173828125,1.6094970703125,-4.8944091796875,17.1881103515625
2021-09-22 20:32:47.476743,-0.1982421875,-0.0625,0.55810546875,1.5765380859375,-4.339599609375,16.512451171875
2021-09-22 20:32:47.486929,-0.04638671875,0.16162109375,0.25439453125,1.2908935546875,-3.5650634765625,15.8148193359375
2021-09-22 20:32:47.497226,-0.11279296875,0.23779296875,0.1396484375,0.9942626953125,-2.6422119140625,15.1007080078125
2021-09-22 20:32:47.507329,-0.123046875,0.17236328125,0.7900390625,0.9228515625,-1.6754150390625,14.3701171875
2021-09-22 20:32:47.516845,0.0166015625,0.00634765625,1.07275390625,1.1370849609375,-0.8514404296875,13.6285400390625
2021-09-22 20:32:47.526958,-0.12548828125,-0.14794921875,1.5888671875,1.3238525390625,-0.3900146484375,12.996826171875
2021-09-22 20:32:47.536785,-0.15625,-0.1728515625,1.21533203125,1.4886474609375,-0.19775390625,12.50244140625
2021-09-22 20:32:47.546614,0.13134765625,0.06982421875,1.0029296875,1.6204833984375,-0.142822265625,12.117919921875
2021-09-22 20:32:47.556842,0.291015625,0.06640625,0.71484375,1.856689453125,-0.3021240234375,11.9476318359375
2021-09-22 20:32:47.566758,0.2978515625,-0.107421875,1.05126953125,1.9775390625,-0.472412109375,12.0465087890625
2021-09-22 20:32:47.576929,0.45263671875,0.1484375,1.27783203125,1.5765380859375,-0.714111328125,12.3431396484375
2021-09-22 20:32:47.586796,0.65380859375,0.3017578125,0.84375,1.065673828125,-1.0931396484375,12.7276611328125
2021-09-22 20:32:47.596853,0.5361328125,0.18505859375,0.921875,0.7196044921875,-1.8731689453125,13.2000732421875
2021-09-22 20:32:47.606625,0.3740234375,0.041015625,1.02001953125,0.4779052734375,-2.8729248046875,13.7384033203125
2021-09-22 20:32:47.616601,0.18701171875,0.0439453125,1.009765625,-0.032958984375,-3.9166259765625,14.2657470703125
2021-09-22 20:32:47.626553,-0.07666015625,0.5478515625,0.8056640625,-0.7855224609375,-4.8284912109375,14.710693359375
2021-09-22 20:32:47.636522,-0.375,0.2705078125,1.69091796875,-1.0931396484375,-5.4766845703125,15.0787353515625
2021-09-22 20:32:47.646471,-0.44287109375,0.01318359375,1.76708984375,-1.12060546875,-5.5426025390625,15.3533935546875
2021-09-22 20:32:47.656386,-0.318359375,0.056640625,1.0478515625,-1.0931396484375,-5.130615234375,15.5072021484375
2021-09-22 20:32:47.666515,-0.06640625,-0.1806640625,0.60107421875,-0.780029296875,-4.1748046875,15.545654296875
2021-09-22 20:32:47.676398,0.14990234375,0.16748046875,0.25830078125,-0.4998779296875,-3.175048828125,15.5072021484375
2021-09-22 20:32:47.686568,0.0234375,0.00048828125,0.318359375,0.1318359375,-2.21923828125,15.2984619140625
2021-09-22 20:32:47.696489,-0.13134765625,-0.2900390625,0.14697265625,0.6866455078125,-1.2139892578125,14.9688720703125
2021-09-22 20:32:47.706740,0.1513671875,0.2255859375,0.84716796875,0.50537109375,-0.263671875,14.7161865234375
2021-09-22 20:32:47.716587,0.3408203125,0.36328125,1.0224609375,0.3570556640625,0.1922607421875,14.6502685546875
2021-09-22 20:32:47.725931,-0.20263671875,0.15576171875,1.8876953125,0.3460693359375,0.098876953125,14.9139404296875
2021-09-22 20:32:47.735685,-0.24560546875,0.1015625,1.228515625,0.3021240234375,-0.318603515625,15.457763671875
2021-09-22 20:32:47.745728,0.01416015625,0.00927734375,1.224609375,0.2471923828125,-0.6866455078125,16.10595703125
2021-09-22 20:32:47.755609,0.166015625,0.05224609375,1.1279296875,0.15380859375,-1.087646484375,16.622314453125
2021-09-22 20:32:47.765483,0.31005859375,-0.1513671875,1.45166015625,0.3131103515625,-1.494140625,16.9024658203125
2021-09-22 20:32:47.775572,0.31640625,-0.0986328125,1.404296875,0.5328369140625,-2.0050048828125,16.94091796875
2021-09-22 20:32:47.785595,0.28759765625,-0.16064453125,1.00634765625,0.845947265625,-2.6422119140625,16.776123046875
2021-09-22 20:32:47.795632,0.05712890625,-0.3193359375,1.232421875,1.1590576171875,-3.2904052734375,16.5728759765625
2021-09-22 20:32:47.805328,-0.36083984375,-0.14111328125,1.33154296875,1.2249755859375,-3.6749267578125,16.3751220703125
2021-09-22 20:32:47.815414,-0.298828125,-0.31005859375,1.34521484375,1.3018798828125,-3.6968994140625,16.1114501953125
2021-09-22 20:32:47.825324,-0.298828125,-0.31005859375,1.34521484375,1.3787841796875,-3.7188720703125,15.8477783203125
2021-09-22 20:32:47.835343,-0.2802734375,0.08251953125,0.97900390625,1.0052490234375,-3.262939453125,15.53466796875
2021-09-22 20:32:47.845363,-0.1240234375,-0.1689453125,0.720703125,0.8184814453125,-2.43896484375,15.1666259765625
2021-09-22 20:32:47.855087,0.126953125,-0.01171875,0.63037109375,0.63720703125,-1.7138671875,14.8809814453125
2021-09-22 20:32:47.865358,-0.05029296875,0.01513671875,0.98828125,0.6976318359375,-1.2469482421875,14.6942138671875
2021-09-22 20:32:47.875376,-0.35546875,-0.28857421875,0.76953125,0.999755859375,-1.0052490234375,14.5074462890625
2021-09-22 20:32:47.885227,-0.49267578125,-0.2060546875,0.7431640625,1.087646484375,-0.76904296875,14.337158203125
2021-09-22 20:32:47.895310,-0.19091796875,0.16943359375,0.75,1.1920166015625,-0.494384765625,14.2657470703125
2021-09-22 20:32:47.905015,-0.001953125,-0.00439453125,0.3671875,1.6314697265625,-0.2362060546875,14.337158203125
2021-09-22 20:32:47.915127,0.046875,-0.1767578125,1.0869140625,1.9281005859375,0.0439453125,14.4854736328125
2021-09-22 20:32:47.925010,0.4423828125,0.1181640625,1.39892578125,1.7193603515625,0.318603515625,14.7271728515625
2021-09-22 20:32:47.934914,0.8193359375,0.1474609375,1.1298828125,1.4666748046875,0.3515625,15.018310546875
2021-09-22 20:32:47.945174,0.68408203125,0.009765625,1.28076171875,1.3348388671875,-0.1043701171875,15.3204345703125
2021-09-22 20:32:47.955057,0.59912109375,-0.17626953125,1.1689453125,1.20849609375,-0.9063720703125,15.64453125
2021-09-22 20:32:47.964931,0.53369140625,0.00830078125,1.2216796875,0.692138671875,-1.8621826171875,15.9576416015625
2021-09-22 20:32:47.974800,0.388671875,0.06201171875,1.02587890625,-0.0439453125,-2.9168701171875,16.259765625
2021-09-22 20:32:47.984886,-0.1416015625,0.50439453125,0.92138671875,-0.8514404296875,-4.053955078125,16.5234375
2021-09-22 20:32:47.994813,-0.56884765625,0.19189453125,1.9609375,-1.0821533203125,-4.98779296875,16.7047119140625
2021-09-22 20:32:48.004692,-0.60498046875,0.10888671875,1.560546875,-1.1041259765625,-5.2679443359375,16.8475341796875
2021-09-22 20:32:48.014780,-0.46875,0.0107421875,1.00390625,-1.131591796875,-4.9163818359375,16.9024658203125
2021-09-22 20:32:48.024601,-0.05078125,-0.11572265625,0.59228515625,-0.9173583984375,-4.0374755859375,16.8695068359375
2021-09-22 20:32:48.034615,0.169921875,0.1123046875,0.18896484375,-0.7086181640625,-3.1201171875,16.776123046875
2021-09-22 20:32:48.044780,0.02880859375,-0.052734375,0.068359375,-0.2032470703125,-2.318115234375,16.534423828125
2021-09-22 20:32:48.054691,-0.24658203125,-0.22705078125,0.17724609375,0.274658203125,-1.5106201171875,16.2213134765625
2021-09-22 20:32:48.064822,0.12451171875,-0.1259765625,1.07958984375,0.406494140625,-0.5438232421875,15.9576416015625
2021-09-22 20:32:48.074446,0.36181640625,0.4765625,1.23046875,0.0933837890625,0.087890625,15.88623046875
2021-09-22 20:32:48.084611,0.13720703125,0.21630859375,2.10693359375,0.1483154296875,0.186767578125,16.0894775390625
2021-09-22 20:32:48.094704,-0.185546875,0.24853515625,1.96435546875,0.1483154296875,-0.2142333984375,16.578369140625
2021-09-22 20:32:48.104497,0.03125,0.1083984375,1.3857421875,0.263671875,-0.648193359375,17.1990966796875
2021-09-22 20:32:48.114403,0.1767578125,0.0439453125,1.10498046875,0.32958984375,-1.1810302734375,17.7703857421875
2021-09-22 20:32:48.124333,0.2763671875,-0.048828125,1.22314453125,0.4833984375,-1.8017578125,18.138427734375
2021-09-22 20:32:48.134237,0.345703125,-0.18310546875,1.45166015625,0.889892578125,-2.4774169921875,18.2757568359375
2021-09-22 20:32:48.144149,0.361328125,-0.2265625,1.2431640625,1.29638671875,-3.3233642578125,18.2373046875
2021-09-22 20:32:48.154253,-0.24755859375,-0.13671875,1.08349609375,1.4776611328125,-4.0045166015625,18.1219482421875
2021-09-22 20:32:48.164226,-0.19775390625,-0.43994140625,1.12451171875,1.8841552734375,-4.515380859375,17.8692626953125
2021-09-22 20:32:48.174235,-0.39404296875,0.00390625,1.1806640625,1.746826171875,-4.46044921875,17.5286865234375
2021-09-22 20:32:48.184232,-0.244140625,-0.0283203125,0.48583984375,1.6424560546875,-4.010009765625,17.07275390625
2021-09-22 20:32:48.194153,-0.033203125,-0.01123046875,0.21142578125,1.4007568359375,-3.2794189453125,16.54541015625
2021-09-22 20:32:48.203969,-0.14306640625,0.22900390625,0.21337890625,0.9832763671875,-2.4114990234375,16.0345458984375
2021-09-22 20:32:48.214819,-0.146484375,-0.11669921875,0.7216796875,1.0601806640625,-1.60400390625,15.5181884765625
2021-09-22 20:32:48.223888,-0.1572265625,0.03515625,1.28955078125,1.0711669921875,-0.8953857421875,15.0732421875
2021-09-22 20:32:48.233975,-0.28076171875,-0.2763671875,1.30810546875,1.3348388671875,-0.428466796875,14.710693359375
2021-09-22 20:32:48.243854,-0.25244140625,-0.1767578125,1.251953125,1.4227294921875,-0.17578125,14.4140625
2021-09-22 20:32:48.253761,0.091796875,0.1435546875,0.98779296875,1.614990234375,-0.032958984375,14.2108154296875
2021-09-22 20:32:48.263860,0.240234375,0.0185546875,0.591796875,2.032470703125,-0.0604248046875,14.205322265625
2021-09-22 20:32:48.273770,0.29296875,-0.11865234375,0.98828125,2.2027587890625,-0.098876953125,14.4140625
