time,acc_x,acc_y,acc_z,roll,pitch,yaw
2021-09-24 22:49:07.962903,0.03369140625,0.5625,0.85693359375,33.3544921875,-1.812744140625,0.955810546875
2021-09-24 22:49:07.963661,0.03125,0.56494140625,0.84716796875,33.3544921875,-1.8182373046875,0.955810546875
2021-09-24 22:49:07.964271,0.03369140625,0.56591796875,0.853515625,33.3544921875,-1.812744140625,0.955810546875
2021-09-24 22:49:07.964937,0.03125,0.56396484375,0.84716796875,33.3599853515625,-1.812744140625,0.955810546875
2021-09-24 22:49:07.965674,0.0322265625,0.5634765625,0.8515625,33.3599853515625,-1.812744140625,0.955810546875
2021-09-24 22:49:07.966354,0.0322265625,0.5634765625,0.849609375,33.3599853515625,-1.812744140625,0.955810546875
2021-09-24 22:49:07.967025,0.0302734375,0.56396484375,0.8515625,33.365478515625,-1.812744140625,0.955810546875
2021-09-24 22:49:07.967673,0.0322265625,0.56396484375,0.8525390625,33.365478515625,-1.812744140625,0.955810546875
2021-09-24 22:49:07.968337,0.03466796875,0.564453125,0.85302734375,33.365478515625,-1.812744140625,0.955810546875
2021-09-24 22:49:07.968789,0.03369140625,0.5625,0.85205078125,33.3709716796875,-1.812744140625,0.955810546875
2021-09-24 22:49:07.969284,0.03466796875,0.560546875,0.85498046875,33.3709716796875,-1.812744140625,0.955810546875
2021-09-24 22:49:07.969737,0.03173828125,0.55908203125,0.8564453125,33.3709716796875,-1.812744140625,0.955810546875
2021-09-24 22:49:07.970192,0.03271484375,0.5615234375,0.85693359375,33.365478515625,-1.8182373046875,0.955810546875
2021-09-24 22:49:07.970750,0.03369140625,0.5634765625,0.853515625,33.365478515625,-1.8182373046875,0.955810546875
2021-09-24 22:49:07.971263,0.03515625,0.5634765625,0.853515625,33.365478515625,-1.8182373046875,0.955810546875
2021-09-24 22:49:07.971890,0.0322265625,0.5654296875,0.85205078125,33.3599853515625,-1.8182373046875,0.955810546875
2021-09-24 22:49:07.972534,0.0322265625,0.56396484375,0.85400390625,33.3599853515625,-1.8182373046875,0.955810546875
2021-09-24 22:49:07.973210,0.03125,0.56201171875,0.8525390625,33.365478515625,-1.8182373046875,0.955810546875
2021-09-24 22:49:07.973893,0.0322265625,0.56103515625,0.85498046875,33.365478515625,-1.8182373046875,0.955810546875
2021-09-24 22:49:07.974564,0.03173828125,0.5615234375,0.85546875,33.365478515625,-1.8182373046875,0.955810546875
2021-09-24 22:49:07.975210,0.033203125,0.5625,0.8515625,33.365478515625,-1.8182373046875,0.955810546875
2021-09-24 22:49:07.975875,0.03271484375,0.56494140625,0.8525390625,33.365478515625,-1.8182373046875,0.955810546875
2021-09-24 22:49:07.976550,0.0302734375,0.564453125,0.8525390625,33.365478515625,-1.8182373046875,0.955810546875
2021-09-24 22:49:07.977252,0.03076171875,0.5625,0.8515625,33.365478515625,-1.8182373046875,0.955810546875
2021-09-24 22:49:07.977910,0.03076171875,0.56201171875,0.8515625,33.3709716796875,-1.8182373046875,0.955810546875
2021-09-24 22:49:07.978579,0.03076171875,0.56201171875,0.849609375,33.3709716796875,-1.8182373046875,0.955810546875
2021-09-24 22:49:07.979226,0.02978515625,0.56298828125,0.85400390625,33.3709716796875,-1.812744140625,0.955810546875
2021-09-24 22:49:07.979876,0.03125,0.56201171875,0.8564453125,33.3709716796875,-1.812744140625,0.955810546875
2021-09-24 22:49:07.980547,0.03173828125,0.5615234375,0.8515625,33.3709716796875,-1.812744140625,0.955810546875
2021-09-24 22:49:07.981208,0.03466796875,0.55908203125,0.8515625,33.3709716796875,-1.8072509765625,0.955810546875
2021-09-24 22:49:07.981874,0.033203125,0.55419921875,0.85986328125,33.3709716796875,-1.8072509765625,0.955810546875
2021-09-24 22:49:07.982429,0.03564453125,0.55810546875,0.85693359375,33.3709716796875,-1.8072509765625,0.966796875
2021-09-24 22:49:07.982964,0.03369140625,0.5712890625,0.83935546875,33.3599853515625,-1.8017578125,0.955810546875
2021-09-24 22:49:07.983395,0.03662109375,0.578125,0.86572265625,33.3599853515625,-1.8017578125,0.9503173828125
2021-09-24 22:49:07.983732,0.02099609375,0.56494140625,0.8427734375,33.3544921875,-1.8017578125,0.9283447265625
2021-09-24 22:49:07.984066,0.0263671875,0.56005859375,0.85693359375,33.365478515625,-1.8182373046875,0.933837890625
2021-09-24 22:49:07.984420,0.02783203125,0.55615234375,0.8486328125,33.37646484375,-1.82373046875,0.94482421875
2021-09-24 22:49:07.984753,0.0302734375,0.55126953125,0.865234375,33.3819580078125,-1.8182373046875,0.9503173828125
2021-09-24 22:49:07.985083,0.037109375,0.56689453125,0.8466796875,33.37646484375,-1.812744140625,0.9722900390625
2021-09-24 22:49:07.985437,0.04736328125,0.58056640625,0.85693359375,33.365478515625,-1.7852783203125,0.966796875
2021-09-24 22:49:07.985766,0.037109375,0.5673828125,0.8505859375,33.3599853515625,-1.768798828125,0.955810546875
2021-09-24 22:49:07.986099,0.033203125,0.556640625,0.85693359375,33.3709716796875,-1.7852783203125,0.966796875
2021-09-24 22:49:07.986426,0.02490234375,0.55078125,0.85400390625,33.37646484375,-1.8072509765625,0.966796875
2021-09-24 22:49:07.986756,0.017578125,0.55126953125,0.8564453125,33.3819580078125,-1.8292236328125,0.955810546875
2021-09-24 22:49:07.987088,0.01904296875,0.5625,0.8515625,33.3709716796875,-1.845703125,0.9503173828125
2021-09-24 22:49:07.987415,0.0283203125,0.578125,0.85693359375,33.3599853515625,-1.834716796875,0.933837890625
2021-09-24 22:49:07.987741,0.033203125,0.5771484375,0.85205078125,33.3544921875,-1.8072509765625,0.9173583984375
2021-09-24 22:49:07.988059,0.0380859375,0.56396484375,0.853515625,33.3599853515625,-1.790771484375,0.9283447265625
2021-09-24 22:49:07.988293,0.041015625,0.5546875,0.85888671875,33.3709716796875,-1.7852783203125,0.955810546875
2021-09-24 22:49:07.988490,0.0390625,0.54736328125,0.85693359375,33.3819580078125,-1.7852783203125,0.977783203125
2021-09-24 22:49:07.988776,0.0380859375,0.556640625,0.85595703125,33.3819580078125,-1.790771484375,0.9942626953125
2021-09-24 22:49:07.989058,0.03662109375,0.5693359375,0.8583984375,33.3709716796875,-1.7962646484375,0.98876953125
2021-09-24 22:49:07.989378,0.03076171875,0.57373046875,0.85205078125,33.3599853515625,-1.7962646484375,0.966796875
2021-09-24 22:49:07.989666,0.0263671875,0.56640625,0.853515625,33.3544921875,-1.8072509765625,0.94482421875
2021-09-24 22:49:07.989958,0.02392578125,0.56201171875,0.85009765625,33.3599853515625,-1.8182373046875,0.9393310546875
2021-09-24 22:49:07.990255,0.02392578125,0.55712890625,0.85546875,33.365478515625,-1.8292236328125,0.933837890625
2021-09-24 22:49:07.990549,0.02734375,0.55810546875,0.8564453125,33.3709716796875,-1.8292236328125,0.94482421875
2021-09-24 22:49:07.990820,0.03515625,0.56640625,0.85107421875,33.365478515625,-1.8182373046875,0.955810546875
2021-09-24 22:49:07.991112,0.041015625,0.568359375,0.85546875,33.365478515625,-1.7962646484375,0.9613037109375
2021-09-24 22:49:07.991366,0.0439453125,0.56591796875,0.85302734375,33.365478515625,-1.77978515625,0.966796875
2021-09-24 22:49:07.991639,0.0419921875,0.56103515625,0.8505859375,33.365478515625,-1.77978515625,0.977783203125
2021-09-24 22:49:07.991919,0.0341796875,0.55810546875,0.853515625,33.3709716796875,-1.790771484375,0.9832763671875
2021-09-24 22:49:07.992205,0.03076171875,0.5576171875,0.85888671875,33.3709716796875,-1.8017578125,0.977783203125
2021-09-24 22:49:07.992490,0.02734375,0.56396484375,0.85400390625,33.365478515625,-1.8182373046875,0.966796875
2021-09-24 22:49:07.992785,0.02587890625,0.56884765625,0.85400390625,33.3599853515625,-1.8292236328125,0.9503173828125
2021-09-24 22:49:07.993086,0.0263671875,0.56689453125,0.8544921875,33.3599853515625,-1.82373046875,0.9393310546875
2021-09-24 22:49:07.993360,0.03173828125,0.56005859375,0.85546875,33.365478515625,-1.82373046875,0.9393310546875
2021-09-24 22:49:07.993575,0.033203125,0.55859375,0.85693359375,33.365478515625,-1.8182373046875,0.9503173828125
2021-09-24 22:49:07.993766,0.0361328125,0.5576171875,0.85400390625,33.3709716796875,-1.812744140625,0.9613037109375
2021-09-24 22:49:07.993957,0.03662109375,0.5595703125,0.85546875,33.3709716796875,-1.8072509765625,0.9722900390625
2021-09-24 22:49:07.994147,0.037109375,0.56494140625,0.85400390625,33.365478515625,-1.7962646484375,0.977783203125
2021-09-24 22:49:07.994370,0.0361328125,0.56494140625,0.8505859375,33.3599853515625,-1.7962646484375,0.9722900390625
2021-09-24 22:49:07.994591,0.03369140625,0.5634765625,0.8544921875,33.3599853515625,-1.8072509765625,0.966796875
2021-09-24 22:49:07.994773,0.029296875,0.56005859375,0.85205078125,33.3599853515625,-1.812744140625,0.9613037109375
2021-09-24 22:49:07.994972,0.02783203125,0.55908203125,0.85302734375,33.3599853515625,-1.82373046875,0.955810546875
2021-09-24 22:49:07.995181,0.029296875,0.56103515625,0.8564453125,33.3599853515625,-1.8292236328125,0.955810546875
2021-09-24 22:49:07.995403,0.03125,0.56201171875,0.853515625,33.3599853515625,-1.82373046875,0.955810546875
2021-09-24 22:49:07.995636,0.0322265625,0.56640625,0.85498046875,33.3599853515625,-1.8182373046875,0.955810546875
2021-09-24 22:49:07.995868,0.03564453125,0.56396484375,0.853515625,33.3599853515625,-1.812744140625,0.9613037109375
2021-09-24 22:49:07.996126,0.03564453125,0.5634765625,0.8505859375,33.3599853515625,-1.8072509765625,0.966796875
2021-09-24 22:49:07.996374,0.03662109375,0.56201171875,0.853515625,33.3599853515625,-1.8072509765625,0.966796875
2021-09-24 22:49:07.996583,0.033203125,0.56298828125,0.8564453125,33.3599853515625,-1.8072509765625,0.966796875
2021-09-24 22:49:07.996828,0.0322265625,0.5634765625,0.85498046875,33.3599853515625,-1.812744140625,0.966796875
2021-09-24 22:49:07.997071,0.0302734375,0.5625,0.8544921875,33.3599853515625,-1.8182373046875,0.9613037109375
2021-09-24 22:49:07.997316,0.03076171875,0.56396484375,0.8525390625,33.3599853515625,-1.8182373046875,0.9613037109375
2021-09-24 22:49:07.997529,0.03125,0.56298828125,0.85302734375,33.365478515625,-1.8182373046875,0.9613037109375
2021-09-24 22:49:07.997701,0.0322265625,0.56494140625,0.85205078125,33.365478515625,-1.8182373046875,0.9613037109375
2021-09-24 22:49:07.997961,0.033203125,0.5654296875,0.853515625,33.365478515625,-1.812744140625,0.9613037109375
2021-09-24 22:49:07.998203,0.0341796875,0.564453125,0.857421875,33.365478515625,-1.812744140625,0.9613037109375
2021-09-24 22:49:07.998364,0.03271484375,0.56201171875,0.8544921875,33.3709716796875,-1.812744140625,0.9613037109375
2021-09-24 22:49:07.998540,0.0302734375,0.5615234375,0.85595703125,33.3709716796875,-1.8182373046875,0.966796875
2021-09-24 22:49:07.998691,0.03125,0.55908203125,0.8544921875,33.3709716796875,-1.8182373046875,0.966796875
2021-09-24 22:49:07.998842,0.0322265625,0.5595703125,0.85302734375,33.3709716796875,-1.82373046875,0.966796875
2021-09-24 22:49:07.999014,0.03271484375,0.5634765625,0.8525390625,33.365478515625,-1.82373046875,0.9613037109375
2021-09-24 22:49:07.999185,0.0322265625,0.564453125,0.85400390625,33.365478515625,-1.8182373046875,0.9613037109375
2021-09-24 22:49:07.999346,0.03466796875,0.564453125,0.85498046875,33.3599853515625,-1.812744140625,0.9613037109375
2021-09-24 22:49:07.999506,0.03564453125,0.564453125,0.85400390625,33.3599853515625,-1.812744140625,0.9613037109375
2021-09-24 22:49:07.999664,0.03515625,0.56103515625,0.8525390625,33.3599853515625,-1.812744140625,0.9613037109375
2021-09-24 22:49:07.999823,0.03271484375,0.56005859375,0.8525390625,33.365478515625,-1.8182373046875,0.966796875
2021-09-24 22:49:07.999982,0.03125,0.5595703125,0.85498046875,33.365478515625,-1.8182373046875,0.966796875
2021-09-24 22:49:08.000148,0.0322265625,0.5625,0.8525390625,33.365478515625,-1.8182373046875,0.966796875
2021-09-24 22:49:08.000305,0.0322265625,0.56201171875,0.85546875,33.365478515625,-1.8182373046875,0.966796875
2021-09-24 22:49:08.000443,0.03173828125,0.56494140625,0.85498046875,33.3599853515625,-1.8182373046875,0.9613037109375
2021-09-24 22:49:08.000572,0.03271484375,0.564453125,0.8525390625,33.3599853515625,-1.8182373046875,0.9613037109375
2021-09-24 22:49:08.000698,0.03271484375,0.56201171875,0.8544921875,33.3599853515625,-1.8182373046875,0.9613037109375
2021-09-24 22:49:08.000873,0.03369140625,0.56005859375,0.8525390625,33.3599853515625,-1.8182373046875,0.9613037109375
2021-09-24 22:49:08.001053,0.033203125,0.560546875,0.8525390625,33.3599853515625,-1.8182373046875,0.9613037109375
2021-09-24 22:49:08.001265,0.03271484375,0.56103515625,0.85400390625,33.3599853515625,-1.8182373046875,0.9613037109375
2021-09-24 22:49:08.001472,0.033203125,0.5654296875,0.8564453125,33.3599853515625,-1.8182373046875,0.9613037109375
2021-09-24 22:49:08.001676,0.0322265625,0.56298828125,0.85546875,33.3599853515625,-1.8182373046875,0.9613037109375
2021-09-24 22:49:08.001877,0.03125,0.56396484375,0.85693359375,33.3599853515625,-1.8182373046875,0.9613037109375
2021-09-24 22:49:08.002072,0.03173828125,0.5625,0.85302734375,33.3599853515625,-1.8182373046875,0.9613037109375
2021-09-24 22:49:08.002267,0.03369140625,0.560546875,0.85546875,33.3599853515625,-1.8182373046875,0.9613037109375
2021-09-24 22:49:08.002460,0.0322265625,0.560546875,0.85546875,33.3599853515625,-1.8182373046875,0.9613037109375
2021-09-24 22:49:08.002652,0.03173828125,0.5615234375,0.85498046875,33.3599853515625,-1.8182373046875,0.9613037109375
2021-09-24 22:49:08.002844,0.0322265625,0.564453125,0.85302734375,33.3544921875,-1.8182373046875,0.955810546875
2021-09-24 22:49:08.003033,0.02978515625,0.5634765625,0.849609375,33.3544921875,-1.8182373046875,0.955810546875
2021-09-24 22:49:08.003202,0.03271484375,0.56396484375,0.85400390625,33.3544921875,-1.8182373046875,0.955810546875
2021-09-24 22:49:08.003362,0.03466796875,0.564453125,0.85107421875,33.3544921875,-1.812744140625,0.955810546875
2021-09-24 22:49:08.003504,0.033203125,0.56494140625,0.85400390625,33.3599853515625,-1.812744140625,0.9613037109375
2021-09-24 22:49:08.003647,0.0341796875,0.5625,0.85546875,33.3599853515625,-1.812744140625,0.9613037109375
2021-09-24 22:49:08.003789,0.03466796875,0.560546875,0.8544921875,33.3599853515625,-1.812744140625,0.9613037109375
2021-09-24 22:49:08.003956,0.03466796875,0.560546875,0.8525390625,33.3599853515625,-1.812744140625,0.9613037109375
2021-09-24 22:49:08.004120,0.03076171875,0.56103515625,0.85400390625,33.3599853515625,-1.8182373046875,0.9613037109375
2021-09-24 22:49:08.004292,0.03076171875,0.56396484375,0.853515625,33.3599853515625,-1.82373046875,0.955810546875
2021-09-24 22:49:08.004455,0.03125,0.5634765625,0.8515625,33.3544921875,-1.82373046875,0.955810546875
2021-09-24 22:49:08.004618,0.03076171875,0.5625,0.8525390625,33.3544921875,-1.82373046875,0.9503173828125
2021-09-24 22:49:08.004785,0.0302734375,0.5634765625,0.853515625,33.3544921875,-1.8182373046875,0.955810546875
2021-09-24 22:49:08.004954,0.03271484375,0.5634765625,0.8564453125,33.3599853515625,-1.812744140625,0.955810546875
2021-09-24 22:49:08.005120,0.03271484375,0.5634765625,0.85107421875,33.3599853515625,-1.8072509765625,0.9613037109375
2021-09-24 22:49:08.005298,0.03515625,0.5615234375,0.8564453125,33.3599853515625,-1.8072509765625,0.9613037109375
2021-09-24 22:49:08.005473,0.033203125,0.5625,0.8544921875,33.3599853515625,-1.812744140625,0.9613037109375
2021-09-24 22:49:08.005647,0.02978515625,0.5615234375,0.85205078125,33.3599853515625,-1.812744140625,0.9613037109375
2021-09-24 22:49:08.005820,0.03173828125,0.5634765625,0.85546875,33.3599853515625,-1.8182373046875,0.9613037109375
2021-09-24 22:49:08.005989,0.03271484375,0.5654296875,0.8544921875,33.3599853515625,-1.8182373046875,0.955810546875
2021-09-24 22:49:08.006184,0.03125,0.56591796875,0.853515625,33.3599853515625,-1.8182373046875,0.9503173828125
2021-09-24 22:49:08.006355,0.033203125,0.56298828125,0.85498046875,33.3599853515625,-1.8182373046875,0.9503173828125
2021-09-24 22:49:08.006522,0.0322265625,0.5625,0.85205078125,33.3599853515625,-1.8182373046875,0.9503173828125
2021-09-24 22:49:08.006688,0.03271484375,0.5615234375,0.8544921875,33.3599853515625,-1.812744140625,0.955810546875
2021-09-24 22:49:08.006856,0.0341796875,0.5615234375,0.8544921875,33.3599853515625,-1.812744140625,0.955810546875
2021-09-24 22:49:08.007015,0.0341796875,0.56201171875,0.8525390625,33.3599853515625,-1.812744140625,0.955810546875
2021-09-24 22:49:08.007176,0.03369140625,0.56396484375,0.8564453125,33.3599853515625,-1.812744140625,0.955810546875
2021-09-24 22:49:08.007337,0.0322265625,0.5654296875,0.85546875,33.3599853515625,-1.812744140625,0.955810546875
2021-09-24 22:49:08.007500,0.02978515625,0.564453125,0.8505859375,33.3544921875,-1.812744140625,0.9503173828125
2021-09-24 22:49:08.007654,0.03173828125,0.56201171875,0.85498046875,33.3599853515625,-1.812744140625,0.94482421875
2021-09-24 22:49:08.007804,0.03271484375,0.56201171875,0.8486328125,33.3599853515625,-1.812744140625,0.94482421875
2021-09-24 22:49:08.007962,0.03125,0.560546875,0.85302734375,33.3599853515625,-1.812744140625,0.9503173828125
2021-09-24 22:49:08.008123,0.03271484375,0.560546875,0.85693359375,33.3599853515625,-1.812744140625,0.9503173828125
2021-09-24 22:49:08.008284,0.03369140625,0.56201171875,0.85107421875,33.3599853515625,-1.812744140625,0.9503173828125
2021-09-24 22:49:08.008447,0.0341796875,0.5625,0.8544921875,33.3599853515625,-1.8072509765625,0.955810546875
2021-09-24 22:49:08.008606,0.0341796875,0.5615234375,0.8544921875,33.3599853515625,-1.812744140625,0.955810546875
2021-09-24 22:49:08.008763,0.033203125,0.5625,0.8544921875,33.3599853515625,-1.812744140625,0.955810546875
2021-09-24 22:49:08.008921,0.03173828125,0.56103515625,0.85302734375,33.3599853515625,-1.812744140625,0.955810546875
2021-09-24 22:49:08.009088,0.02978515625,0.5634765625,0.8505859375,33.3599853515625,-1.812744140625,0.955810546875
2021-09-24 22:49:08.009272,0.03125,0.56298828125,0.8525390625,33.3599853515625,-1.812744140625,0.955810546875
2021-09-24 22:49:08.009425,0.03125,0.5625,0.85693359375,33.365478515625,-1.8072509765625,0.955810546875
2021-09-24 22:49:08.009575,0.03125,0.5625,0.85302734375,33.3599853515625,-1.8072509765625,0.955810546875
2021-09-24 22:49:08.009734,0.03173828125,0.56201171875,0.85400390625,33.3599853515625,-1.8072509765625,0.955810546875
2021-09-24 22:49:08.009898,0.0302734375,0.5615234375,0.8544921875,33.3599853515625,-1.8072509765625,0.955810546875
2021-09-24 22:49:08.010058,0.0322265625,0.56298828125,0.8525390625,33.3599853515625,-1.8072509765625,0.955810546875
2021-09-24 22:49:08.010222,0.0322265625,0.564453125,0.857421875,33.3599853515625,-1.8072509765625,0.955810546875
2021-09-24 22:49:08.010382,0.03271484375,0.56396484375,0.85205078125,33.3599853515625,-1.8072509765625,0.955810546875
2021-09-24 22:49:08.010541,0.0322265625,0.564453125,0.85693359375,33.365478515625,-1.8072509765625,0.955810546875
2021-09-24 22:49:08.010706,0.03271484375,0.564453125,0.85498046875,33.365478515625,-1.8072509765625,0.955810546875
2021-09-24 22:49:08.010870,0.03271484375,0.56201171875,0.8525390625,33.365478515625,-1.8072509765625,0.955810546875
2021-09-24 22:49:08.011022,0.03173828125,0.56298828125,0.853515625,33.365478515625,-1.8072509765625,0.955810546875
2021-09-24 22:49:08.011152,0.02978515625,0.564453125,0.8515625,33.365478515625,-1.8072509765625,0.955810546875
2021-09-24 22:49:08.011257,0.03076171875,0.564453125,0.8525390625,33.365478515625,-1.8072509765625,0.955810546875
2021-09-24 22:49:08.011402,0.03466796875,0.56494140625,0.853515625,33.365478515625,-1.8072509765625,0.955810546875
2021-09-24 22:49:08.011514,0.03466796875,0.56298828125,0.8525390625,33.3709716796875,-1.8072509765625,0.955810546875
2021-09-24 22:49:08.011638,0.033203125,0.5625,0.853515625,33.3709716796875,-1.8072509765625,0.955810546875
2021-09-24 22:49:08.011805,0.03369140625,0.5625,0.853515625,33.3709716796875,-1.8072509765625,0.955810546875
2021-09-24 22:49:08.011944,0.03125,0.5615234375,0.853515625,33.3709716796875,-1.8072509765625,0.955810546875
2021-09-24 22:49:08.012098,0.03125,0.5615234375,0.853515625,33.3709716796875,-1.8072509765625,0.955810546875
2021-09-24 22:49:08.012247,0.03173828125,0.56298828125,0.85302734375,33.3709716796875,-1.8072509765625,0.955810546875
2021-09-24 22:49:08.012407,0.03076171875,0.56396484375,0.8515625,33.3709716796875,-1.8072509765625,0.955810546875
2021-09-24 22:49:08.012547,0.03271484375,0.5654296875,0.85302734375,33.3709716796875,-1.8072509765625,0.955810546875
2021-09-24 22:49:08.012690,0.02978515625,0.5625,0.85302734375,33.3709716796875,-1.8072509765625,0.955810546875
2021-09-24 22:49:08.012823,0.0322265625,0.56396484375,0.85693359375,33.3709716796875,-1.8072509765625,0.955810546875
2021-09-24 22:49:08.012967,0.03173828125,0.56201171875,0.85595703125,33.3709716796875,-1.8017578125,0.955810546875
2021-09-24 22:49:08.013108,0.03369140625,0.56396484375,0.85302734375,33.3709716796875,-1.8017578125,0.955810546875
2021-09-24 22:49:08.013284,0.0322265625,0.56103515625,0.85205078125,33.3709716796875,-1.8017578125,0.955810546875
2021-09-24 22:49:08.013440,0.03173828125,0.56201171875,0.8525390625,33.3709716796875,-1.8017578125,0.955810546875
2021-09-24 22:49:08.013574,0.0322265625,0.56396484375,0.8525390625,33.3709716796875,-1.8017578125,0.955810546875
2021-09-24 22:49:08.013715,0.033203125,0.5634765625,0.8544921875,33.37646484375,-1.8072509765625,0.955810546875
2021-09-24 22:49:08.013851,0.03173828125,0.5634765625,0.8505859375,33.37646484375,-1.8072509765625,0.955810546875
2021-09-24 22:49:08.013964,0.03173828125,0.5634765625,0.853515625,33.37646484375,-1.8072509765625,0.955810546875
2021-09-24 22:49:08.014076,0.03369140625,0.56396484375,0.853515625,33.37646484375,-1.8072509765625,0.955810546875
2021-09-24 22:49:08.014189,0.0322265625,0.5625,0.85302734375,33.37646484375,-1.8072509765625,0.955810546875
2021-09-24 22:49:08.014323,0.0341796875,0.5615234375,0.853515625,33.37646484375,-1.8017578125,0.955810546875
2021-09-24 22:49:08.014450,0.0322265625,0.56298828125,0.8544921875,33.37646484375,-1.8017578125,0.955810546875
2021-09-24 22:49:08.014573,0.03369140625,0.56298828125,0.85302734375,33.37646484375,-1.8017578125,0.955810546875
2021-09-24 22:49:08.014698,0.03173828125,0.56103515625,0.85693359375,33.37646484375,-1.8017578125,0.955810546875
2021-09-24 22:49:08.014805,0.0302734375,0.56298828125,0.85107421875,33.37646484375,-1.8017578125,0.955810546875
2021-09-24 22:49:08.014917,0.03271484375,0.56298828125,0.8544921875,33.37646484375,-1.8017578125,0.955810546875
2021-09-24 22:49:08.015031,0.0322265625,0.5625,0.857421875,33.37646484375,-1.8017578125,0.955810546875
2021-09-24 22:49:08.015140,0.03173828125,0.5634765625,0.8505859375,33.37646484375,-1.8017578125,0.955810546875
2021-09-24 22:49:08.015249,0.03369140625,0.56298828125,0.85498046875,33.37646484375,-1.8017578125,0.955810546875
2021-09-24 22:49:08.015374,0.0341796875,0.56298828125,0.85546875,33.37646484375,-1.8017578125,0.955810546875
2021-09-24 22:49:08.015503,0.03271484375,0.5625,0.85205078125,33.37646484375,-1.8017578125,0.955810546875
2021-09-24 22:49:08.015648,0.033203125,0.5625,0.85498046875,33.37646484375,-1.8017578125,0.955810546875
2021-09-24 22:49:08.015788,0.03076171875,0.5615234375,0.8564453125,33.37646484375,-1.8017578125,0.955810546875
2021-09-24 22:49:08.015929,0.03076171875,0.56103515625,0.85302734375,33.37646484375,-1.8017578125,0.955810546875
2021-09-24 22:49:08.016079,0.03271484375,0.5625,0.85400390625,33.3709716796875,-1.8017578125,0.955810546875
2021-09-24 22:49:08.016232,0.0322265625,0.56298828125,0.8525390625,33.3709716796875,-1.8017578125,0.955810546875
2021-09-24 22:49:08.016385,0.03173828125,0.56103515625,0.853515625,33.37646484375,-1.8017578125,0.955810546875
2021-09-24 22:49:08.016522,0.03369140625,0.5615234375,0.8544921875,33.3709716796875,-1.8017578125,0.955810546875
2021-09-24 22:49:08.016638,0.033203125,0.5615234375,0.85302734375,33.3709716796875,-1.8017578125,0.955810546875
2021-09-24 22:49:08.016764,0.03125,0.56201171875,0.853515625,33.3709716796875,-1.8017578125,0.955810546875
2021-09-24 22:49:08.016902,0.03271484375,0.5634765625,0.85302734375,33.3709716796875,-1.8017578125,0.955810546875
2021-09-24 22:49:08.017047,0.03125,0.5625,0.853515625,33.3709716796875,-1.8017578125,0.955810546875
2021-09-24 22:49:08.017182,0.0302734375,0.56005859375,0.8515625,33.3709716796875,-1.8017578125,0.955810546875
2021-09-24 22:49:08.017342,0.03125,0.5615234375,0.85546875,33.3709716796875,-1.8017578125,0.955810546875
2021-09-24 22:49:08.017464,0.0322265625,0.56103515625,0.8544921875,33.3709716796875,-1.8017578125,0.955810546875
2021-09-24 22:49:08.017595,0.0322265625,0.5634765625,0.8515625,33.3709716796875,-1.8017578125,0.955810546875
2021-09-24 22:49:08.017714,0.03271484375,0.5625,0.85302734375,33.3709716796875,-1.8017578125,0.955810546875
2021-09-24 22:49:08.017845,0.033203125,0.56396484375,0.85693359375,33.3709716796875,-1.8017578125,0.955810546875
2021-09-24 22:49:08.017962,0.03173828125,0.56298828125,0.85205078125,33.3709716796875,-1.8017578125,0.955810546875
2021-09-24 22:49:08.018074,0.03369140625,0.56103515625,0.85205078125,33.3709716796875,-1.8017578125,0.955810546875
2021-09-24 22:49:08.018195,0.0322265625,0.5625,0.8544921875,33.3709716796875,-1.8017578125,0.955810546875
2021-09-24 22:49:08.018331,0.0302734375,0.5615234375,0.85107421875,33.3709716796875,-1.8017578125,0.955810546875
2021-09-24 22:49:08.018454,0.03173828125,0.56201171875,0.8544921875,33.3709716796875,-1.8017578125,0.955810546875
2021-09-24 22:49:08.018586,0.03271484375,0.5654296875,0.85302734375,33.3709716796875,-1.8017578125,0.955810546875
2021-09-24 22:49:08.018709,0.03173828125,0.56201171875,0.85205078125,33.37646484375,-1.8017578125,0.955810546875
2021-09-24 22:49:08.018820,0.0322265625,0.5615234375,0.8544921875,33.37646484375,-1.8017578125,0.955810546875
2021-09-24 22:49:08.018934,0.03466796875,0.5615234375,0.85400390625,33.37646484375,-1.8017578125,0.955810546875
2021-09-24 22:49:08.019045,0.03369140625,0.56298828125,0.8505859375,33.3709716796875,-1.8017578125,0.955810546875
2021-09-24 22:49:08.019157,0.0322265625,0.5625,0.85595703125,33.37646484375,-1.8017578125,0.955810546875
2021-09-24 22:49:08.019276,0.03271484375,0.56201171875,0.8525390625,33.37646484375,-1.8017578125,0.955810546875
2021-09-24 22:49:08.019384,0.0322265625,0.56298828125,0.85791015625,33.37646484375,-1.8017578125,0.955810546875
2021-09-24 22:49:08.019489,0.03271484375,0.56298828125,0.85400390625,33.3709716796875,-1.8017578125,0.955810546875
2021-09-24 22:49:08.019596,0.0322265625,0.56396484375,0.85498046875,33.3709716796875,-1.8017578125,0.955810546875
2021-09-24 22:49:08.019713,0.03271484375,0.56298828125,0.85595703125,33.37646484375,-1.8017578125,0.955810546875
2021-09-24 22:49:08.019823,0.0302734375,0.5625,0.853515625,33.3709716796875,-1.8017578125,0.955810546875
2021-09-24 22:49:08.019937,0.03076171875,0.5634765625,0.8525390625,33.3709716796875,-1.8017578125,0.955810546875
2021-09-24 22:49:08.020063,0.0322265625,0.5634765625,0.85595703125,33.37646484375,-1.8017578125,0.955810546875
2021-09-24 22:49:08.020194,0.0322265625,0.5615234375,0.85400390625,33.37646484375,-1.8017578125,0.955810546875
2021-09-24 22:49:08.020321,0.0341796875,0.56201171875,0.8525390625,33.3709716796875,-1.8017578125,0.955810546875
2021-09-24 22:49:08.020442,0.03173828125,0.5625,0.8544921875,33.37646484375,-1.8017578125,0.955810546875
2021-09-24 22:49:08.020564,0.0322265625,0.56201171875,0.8525390625,33.3709716796875,-1.8017578125,0.955810546875
2021-09-24 22:49:08.020715,0.03271484375,0.56103515625,0.8515625,33.37646484375,-1.8017578125,0.955810546875
2021-09-24 22:49:08.020872,0.03076171875,0.564453125,0.849609375,33.37646484375,-1.8017578125,0.955810546875
2021-09-24 22:49:08.021020,0.033203125,0.5625,0.8515625,33.37646484375,-1.8017578125,0.955810546875
2021-09-24 22:49:08.021167,0.03125,0.56298828125,0.8544921875,33.37646484375,-1.8017578125,0.955810546875
2021-09-24 22:49:08.021327,0.0302734375,0.56201171875,0.85400390625,33.37646484375,-1.8017578125,0.955810546875
2021-09-24 22:49:08.021474,0.03125,0.56201171875,0.8505859375,33.37646484375,-1.8017578125,0.955810546875
2021-09-24 22:49:08.021621,0.03173828125,0.5625,0.8564453125,33.37646484375,-1.8017578125,0.955810546875
2021-09-24 22:49:08.021757,0.03173828125,0.56298828125,0.8525390625,33.37646484375,-1.8017578125,0.955810546875
2021-09-24 22:49:08.021881,0.03076171875,0.56298828125,0.85400390625,33.37646484375,-1.7962646484375,0.955810546875
2021-09-24 22:49:08.021995,0.03125,0.5625,0.85205078125,33.37646484375,-1.7962646484375,0.955810546875
2021-09-24 22:49:08.022114,0.03076171875,0.56494140625,0.853515625,33.37646484375,-1.7962646484375,0.955810546875
2021-09-24 22:49:08.022258,0.03271484375,0.56494140625,0.8564453125,33.37646484375,-1.7962646484375,0.955810546875
2021-09-24 22:49:08.022390,0.03173828125,0.5634765625,0.8564453125,33.37646484375,-1.7962646484375,0.955810546875
2021-09-24 22:49:08.022535,0.03173828125,0.56396484375,0.85546875,33.37646484375,-1.7962646484375,0.955810546875
2021-09-24 22:49:08.022674,0.033203125,0.5625,0.8564453125,33.37646484375,-1.7962646484375,0.955810546875
2021-09-24 22:49:08.022810,0.033203125,0.5615234375,0.85400390625,33.37646484375,-1.7962646484375,0.955810546875
2021-09-24 22:49:08.022950,0.03369140625,0.5615234375,0.85546875,33.37646484375,-1.7962646484375,0.955810546875
2021-09-24 22:49:08.023092,0.03076171875,0.5625,0.85400390625,33.37646484375,-1.7962646484375,0.955810546875
2021-09-24 22:49:08.023232,0.0322265625,0.5634765625,0.8525390625,33.37646484375,-1.7962646484375,0.955810546875
2021-09-24 22:49:08.023366,0.0322265625,0.56396484375,0.853515625,33.37646484375,-1.7962646484375,0.955810546875
2021-09-24 22:49:08.023512,0.03271484375,0.56396484375,0.85107421875,33.37646484375,-1.7962646484375,0.955810546875
2021-09-24 22:49:08.023637,0.03369140625,0.5595703125,0.85546875,33.3819580078125,-1.7962646484375,0.955810546875
2021-09-24 22:49:08.023778,0.03173828125,0.56201171875,0.85400390625,33.37646484375,-1.8017578125,0.955810546875
2021-09-24 22:49:08.023925,0.03173828125,0.5634765625,0.853515625,33.37646484375,-1.7962646484375,0.955810546875
2021-09-24 22:49:08.024073,0.03271484375,0.5634765625,0.85498046875,33.37646484375,-1.7962646484375,0.955810546875
2021-09-24 22:49:08.024216,0.0322265625,0.5615234375,0.85302734375,33.37646484375,-1.7962646484375,0.955810546875
2021-09-24 22:49:08.024352,0.03076171875,0.5615234375,0.8544921875,33.37646484375,-1.8017578125,0.955810546875
2021-09-24 22:49:08.024484,0.03125,0.56103515625,0.85595703125,33.37646484375,-1.7962646484375,0.955810546875
2021-09-24 22:49:08.024617,0.0302734375,0.5615234375,0.85205078125,33.37646484375,-1.7962646484375,0.955810546875
2021-09-24 22:49:08.024750,0.03369140625,0.5625,0.85302734375,33.37646484375,-1.7962646484375,0.955810546875
2021-09-24 22:49:08.024876,0.033203125,0.5634765625,0.853515625,33.37646484375,-1.7962646484375,0.955810546875
2021-09-24 22:49:08.025007,0.0322265625,0.56396484375,0.85205078125,33.37646484375,-1.7962646484375,0.955810546875
2021-09-24 22:49:08.025125,0.03369140625,0.56201171875,0.85546875,33.37646484375,-1.7962646484375,0.955810546875
2021-09-24 22:49:08.025254,0.03466796875,0.56396484375,0.85205078125,33.37646484375,-1.8017578125,0.955810546875
2021-09-24 22:49:08.025389,0.033203125,0.56396484375,0.85400390625,33.37646484375,-1.8017578125,0.955810546875
2021-09-24 22:49:08.025506,0.0322265625,0.56298828125,0.85595703125,33.37646484375,-1.8017578125,0.955810546875
2021-09-24 22:49:08.025626,0.03125,0.5625,0.85205078125,33.37646484375,-1.8017578125,0.955810546875
2021-09-24 22:49:08.025749,0.03271484375,0.5625,0.8544921875,33.37646484375,-1.8017578125,0.955810546875
2021-09-24 22:49:08.025880,0.03173828125,0.5625,0.85205078125,33.37646484375,-1.8017578125,0.955810546875
2021-09-24 22:49:08.026011,0.03369140625,0.56396484375,0.85205078125,33.37646484375,-1.8017578125,0.955810546875
2021-09-24 22:49:08.026137,0.033203125,0.5625,0.8515625,33.3819580078125,-1.8017578125,0.955810546875
2021-09-24 22:49:08.026262,0.033203125,0.56298828125,0.85400390625,33.3819580078125,-1.8017578125,0.955810546875
2021-09-24 22:49:08.026397,0.03125,0.56103515625,0.85400390625,33.3819580078125,-1.8017578125,0.955810546875
2021-09-24 22:49:08.026524,0.03125,0.56103515625,0.85400390625,33.3819580078125,-1.8017578125,0.955810546875
2021-09-24 22:49:08.026655,0.03271484375,0.5634765625,0.853515625,33.37646484375,-1.8017578125,0.955810546875
2021-09-24 22:49:08.026798,0.03173828125,0.56396484375,0.853515625,33.3819580078125,-1.8017578125,0.955810546875
2021-09-24 22:49:08.026915,0.033203125,0.56494140625,0.85546875,33.3819580078125,-1.8017578125,0.955810546875
2021-09-24 22:49:08.027062,0.03271484375,0.5625,0.85302734375,33.3819580078125,-1.8017578125,0.955810546875
2021-09-24 22:49:08.027223,0.0322265625,0.5634765625,0.85205078125,33.3819580078125,-1.8017578125,0.955810546875
2021-09-24 22:49:08.027391,0.033203125,0.56201171875,0.857421875,33.3819580078125,-1.8017578125,0.955810546875
2021-09-24 22:49:08.027543,0.03369140625,0.56298828125,0.8505859375,33.3819580078125,-1.8017578125,0.955810546875
2021-09-24 22:49:08.027704,0.0322265625,0.56298828125,0.85302734375,33.3819580078125,-1.8017578125,0.955810546875
2021-09-24 22:49:08.027850,0.03125,0.5625,0.85498046875,33.3819580078125,-1.8017578125,0.955810546875
2021-09-24 22:49:08.027975,0.02978515625,0.5625,0.85205078125,33.3819580078125,-1.8017578125,0.955810546875
2021-09-24 22:49:08.028097,0.03076171875,0.5615234375,0.85498046875,33.3819580078125,-1.8017578125,0.955810546875
2021-09-24 22:49:08.028245,0.03125,0.5625,0.853515625,33.3819580078125,-1.8017578125,0.955810546875
2021-09-24 22:49:08.028387,0.03173828125,0.56103515625,0.8525390625,33.3819580078125,-1.8017578125,0.955810546875
2021-09-24 22:49:08.028516,0.03125,0.56298828125,0.85400390625,33.3819580078125,-1.8017578125,0.955810546875
2021-09-24 22:49:08.028636,0.03173828125,0.5625,0.8525390625,33.3819580078125,-1.8017578125,0.955810546875
2021-09-24 22:49:08.028751,0.03173828125,0.56201171875,0.85595703125,33.3819580078125,-1.8017578125,0.955810546875
2021-09-24 22:49:08.028891,0.033203125,0.56103515625,0.85498046875,33.3819580078125,-1.8017578125,0.955810546875
2021-09-24 22:49:08.029023,0.033203125,0.56103515625,0.853515625,33.3819580078125,-1.8017578125,0.955810546875
2021-09-24 22:49:08.029149,0.03271484375,0.5615234375,0.859375,33.37646484375,-1.8017578125,0.955810546875
2021-09-24 22:49:08.029317,0.03173828125,0.56201171875,0.8544921875,33.37646484375,-1.8017578125,0.955810546875
2021-09-24 22:49:08.029449,0.03173828125,0.56298828125,0.853515625,33.37646484375,-1.8017578125,0.955810546875
2021-09-24 22:49:08.029582,0.03125,0.5615234375,0.85595703125,33.37646484375,-1.8017578125,0.955810546875
2021-09-24 22:49:08.029725,0.03173828125,0.564453125,0.85107421875,33.37646484375,-1.8017578125,0.955810546875
2021-09-24 22:49:08.029870,0.03271484375,0.56396484375,0.85302734375,33.37646484375,-1.8017578125,0.955810546875
2021-09-24 22:49:08.030014,0.0322265625,0.564453125,0.85693359375,33.37646484375,-1.8017578125,0.955810546875
2021-09-24 22:49:08.030153,0.03271484375,0.5625,0.85205078125,33.37646484375,-1.8017578125,0.955810546875
2021-09-24 22:49:08.030290,0.03515625,0.56201171875,0.85302734375,33.37646484375,-1.8017578125,0.955810546875
2021-09-24 22:49:08.030428,0.0341796875,0.5634765625,0.85498046875,33.37646484375,-1.8017578125,0.955810546875
2021-09-24 22:49:08.030576,0.03173828125,0.56298828125,0.8544921875,33.37646484375,-1.8017578125,0.955810546875
2021-09-24 22:49:08.030720,0.03076171875,0.56103515625,0.8544921875,33.37646484375,-1.8017578125,0.955810546875
2021-09-24 22:49:08.030876,0.03125,0.5625,0.85205078125,33.37646484375,-1.8017578125,0.955810546875
2021-09-24 22:49:08.031030,0.03369140625,0.56201171875,0.85302734375,33.37646484375,-1.8017578125,0.955810546875
2021-09-24 22:49:08.031182,0.03369140625,0.56298828125,0.85595703125,33.37646484375,-1.8017578125,0.955810546875
2021-09-24 22:49:08.031327,0.03125,0.5634765625,0.8515625,33.37646484375,-1.8017578125,0.955810546875
2021-09-24 22:49:08.031479,0.0322265625,0.5625,0.8544921875,33.37646484375,-1.8017578125,0.955810546875
2021-09-24 22:49:08.031621,0.03076171875,0.55908203125,0.853515625,33.37646484375,-1.8017578125,0.955810546875
2021-09-24 22:49:08.031749,0.0302734375,0.56298828125,0.85400390625,33.37646484375,-1.8017578125,0.955810546875
2021-09-24 22:49:08.031892,0.03173828125,0.56396484375,0.85693359375,33.37646484375,-1.8017578125,0.955810546875
2021-09-24 22:49:08.032020,0.0302734375,0.5654296875,0.8515625,33.37646484375,-1.7962646484375,0.955810546875
2021-09-24 22:49:08.032152,0.0322265625,0.56298828125,0.853515625,33.37646484375,-1.7962646484375,0.955810546875
2021-09-24 22:49:08.032273,0.03271484375,0.56298828125,0.85546875,33.37646484375,-1.7962646484375,0.955810546875
2021-09-24 22:49:08.032401,0.03076171875,0.560546875,0.85205078125,33.37646484375,-1.7962646484375,0.955810546875
2021-09-24 22:49:08.032536,0.03173828125,0.5615234375,0.85302734375,33.37646484375,-1.7962646484375,0.955810546875
2021-09-24 22:49:08.032669,0.03125,0.5625,0.8544921875,33.37646484375,-1.7962646484375,0.955810546875
2021-09-24 22:49:08.032811,0.03173828125,0.56298828125,0.8525390625,33.37646484375,-1.7962646484375,0.955810546875
2021-09-24 22:49:08.032936,0.03271484375,0.56298828125,0.8544921875,33.37646484375,-1.7962646484375,0.955810546875
2021-09-24 22:49:08.033058,0.03173828125,0.5625,0.85302734375,33.37646484375,-1.7962646484375,0.955810546875
2021-09-24 22:49:08.033170,0.02978515625,0.5634765625,0.85791015625,33.37646484375,-1.7962646484375,0.955810546875
2021-09-24 22:49:08.033316,0.0322265625,0.56201171875,0.85888671875,33.37646484375,-1.7962646484375,0.955810546875
2021-09-24 22:49:08.033425,0.03173828125,0.56201171875,0.85400390625,33.37646484375,-1.7962646484375,0.955810546875
2021-09-24 22:49:08.033553,0.0302734375,0.56201171875,0.85595703125,33.37646484375,-1.7962646484375,0.955810546875
2021-09-24 22:49:08.033681,0.03076171875,0.56103515625,0.8544921875,33.3709716796875,-1.7962646484375,0.955810546875
2021-09-24 22:49:08.033806,0.033203125,0.5625,0.85595703125,33.3709716796875,-1.790771484375,0.955810546875
2021-09-24 22:49:08.033939,0.033203125,0.5634765625,0.85546875,33.3709716796875,-1.7962646484375,0.955810546875
2021-09-24 22:49:08.034067,0.0322265625,0.5634765625,0.85400390625,33.3709716796875,-1.7962646484375,0.955810546875
2021-09-24 22:49:08.034192,0.0322265625,0.56201171875,0.8564453125,33.3709716796875,-1.7962646484375,0.955810546875
2021-09-24 22:49:08.034307,0.03173828125,0.5625,0.8544921875,33.3709716796875,-1.7962646484375,0.955810546875
2021-09-24 22:49:08.034421,0.0322265625,0.5625,0.8525390625,33.3709716796875,-1.7962646484375,0.955810546875
2021-09-24 22:49:08.034537,0.0322265625,0.56298828125,0.85302734375,33.3709716796875,-1.7962646484375,0.955810546875
2021-09-24 22:49:08.034646,0.03369140625,0.56396484375,0.8544921875,33.3709716796875,-1.7962646484375,0.955810546875
2021-09-24 22:49:08.034739,0.03369140625,0.5634765625,0.8525390625,33.3709716796875,-1.7962646484375,0.955810546875
2021-09-24 22:49:08.034857,0.0322265625,0.5634765625,0.8525390625,33.3709716796875,-1.7962646484375,0.955810546875
2021-09-24 22:49:08.034981,0.03173828125,0.56396484375,0.85107421875,33.37646484375,-1.7962646484375,0.955810546875
2021-09-24 22:49:08.035104,0.03173828125,0.5634765625,0.8564453125,33.37646484375,-1.7962646484375,0.955810546875
2021-09-24 22:49:08.035210,0.033203125,0.56298828125,0.85498046875,33.37646484375,-1.7962646484375,0.955810546875
2021-09-24 22:49:08.035320,0.03369140625,0.5625,0.8505859375,33.37646484375,-1.7962646484375,0.955810546875
2021-09-24 22:49:08.035426,0.03369140625,0.560546875,0.85498046875,33.37646484375,-1.7962646484375,0.955810546875
2021-09-24 22:49:08.035534,0.03271484375,0.56201171875,0.853515625,33.37646484375,-1.7962646484375,0.955810546875
2021-09-24 22:49:08.035639,0.033203125,0.56201171875,0.8515625,33.37646484375,-1.7962646484375,0.955810546875
2021-09-24 22:49:08.035751,0.03271484375,0.56298828125,0.853515625,33.37646484375,-1.7962646484375,0.955810546875
2021-09-24 22:49:08.035877,0.033203125,0.5615234375,0.85205078125,33.37646484375,-1.7962646484375,0.955810546875
2021-09-24 22:49:08.035999,0.0341796875,0.56201171875,0.85205078125,33.37646484375,-1.8017578125,0.955810546875
2021-09-24 22:49:08.036116,0.03515625,0.5615234375,0.8515625,33.37646484375,-1.8017578125,0.955810546875
2021-09-24 22:49:08.036228,0.03271484375,0.5625,0.85400390625,33.37646484375,-1.8017578125,0.955810546875
2021-09-24 22:49:08.036333,0.033203125,0.56298828125,0.85498046875,33.37646484375,-1.8017578125,0.955810546875
2021-09-24 22:49:08.036441,0.0322265625,0.5634765625,0.8525390625,33.37646484375,-1.8017578125,0.955810546875
2021-09-24 22:49:08.036549,0.033203125,0.5634765625,0.8515625,33.37646484375,-1.8017578125,0.955810546875
2021-09-24 22:49:08.036668,0.03466796875,0.564453125,0.85546875,33.37646484375,-1.8017578125,0.955810546875
2021-09-24 22:49:08.036795,0.03271484375,0.564453125,0.853515625,33.37646484375,-1.8017578125,0.955810546875
2021-09-24 22:49:08.036943,0.0322265625,0.56201171875,0.85498046875,33.3819580078125,-1.8017578125,0.955810546875
2021-09-24 22:49:08.037095,0.03076171875,0.564453125,0.8564453125,33.37646484375,-1.8017578125,0.955810546875
2021-09-24 22:49:08.037255,0.033203125,0.56298828125,0.849609375,33.37646484375,-1.8017578125,0.955810546875
2021-09-24 22:49:08.037408,0.0322265625,0.5634765625,0.8564453125,33.3819580078125,-1.8017578125,0.955810546875
2021-09-24 22:49:08.037558,0.0322265625,0.56396484375,0.85498046875,33.3819580078125,-1.8017578125,0.955810546875
2021-09-24 22:49:08.037690,0.0341796875,0.5625,0.85302734375,33.3819580078125,-1.8017578125,0.955810546875
2021-09-24 22:49:08.037842,0.03466796875,0.56201171875,0.85400390625,33.3819580078125,-1.8072509765625,0.955810546875
2021-09-24 22:49:08.037988,0.03173828125,0.56201171875,0.853515625,33.3819580078125,-1.8072509765625,0.955810546875
2021-09-24 22:49:08.038144,0.03369140625,0.56298828125,0.853515625,33.3819580078125,-1.8072509765625,0.955810546875
2021-09-24 22:49:08.038279,0.03271484375,0.56494140625,0.8525390625,33.3819580078125,-1.8072509765625,0.955810546875
2021-09-24 22:49:08.038432,0.0322265625,0.56298828125,0.8544921875,33.3819580078125,-1.8072509765625,0.955810546875
2021-09-24 22:49:08.038576,0.03271484375,0.564453125,0.8564453125,33.3819580078125,-1.8072509765625,0.955810546875
2021-09-24 22:49:08.038730,0.03271484375,0.56494140625,0.85595703125,33.3819580078125,-1.8072509765625,0.955810546875
2021-09-24 22:49:08.038877,0.033203125,0.56103515625,0.85302734375,33.3819580078125,-1.8072509765625,0.955810546875
2021-09-24 22:49:08.039029,0.03271484375,0.56201171875,0.85302734375,33.3819580078125,-1.8072509765625,0.955810546875
2021-09-24 22:49:08.039177,0.0322265625,0.5634765625,0.8505859375,33.3819580078125,-1.8072509765625,0.955810546875
2021-09-24 22:49:08.039325,0.03271484375,0.5634765625,0.85693359375,33.3819580078125,-1.8072509765625,0.955810546875
2021-09-24 22:49:08.039472,0.03125,0.56494140625,0.85400390625,33.3819580078125,-1.8072509765625,0.955810546875
2021-09-24 22:49:08.039616,0.03173828125,0.5634765625,0.85400390625,33.3819580078125,-1.8072509765625,0.955810546875
2021-09-24 22:49:08.039769,0.03173828125,0.56494140625,0.85595703125,33.3819580078125,-1.8072509765625,0.955810546875
2021-09-24 22:49:08.039915,0.03173828125,0.56396484375,0.853515625,33.3819580078125,-1.8072509765625,0.955810546875
2021-09-24 22:49:08.040067,0.0322265625,0.5625,0.8544921875,33.3819580078125,-1.8072509765625,0.955810546875
2021-09-24 22:49:08.040216,0.033203125,0.56298828125,0.8544921875,33.3819580078125,-1.8072509765625,0.955810546875
2021-09-24 22:49:08.040364,0.03271484375,0.5625,0.85302734375,33.3819580078125,-1.8072509765625,0.955810546875
2021-09-24 22:49:08.040513,0.03173828125,0.56201171875,0.85546875,33.3819580078125,-1.8072509765625,0.955810546875
2021-09-24 22:49:08.040654,0.0322265625,0.5615234375,0.853515625,33.3819580078125,-1.8072509765625,0.955810546875
2021-09-24 22:49:08.040796,0.033203125,0.56005859375,0.85205078125,33.3819580078125,-1.8072509765625,0.955810546875
2021-09-24 22:49:08.040944,0.033203125,0.56494140625,0.85498046875,33.3819580078125,-1.8072509765625,0.955810546875
2021-09-24 22:49:08.041090,0.0322265625,0.56396484375,0.85400390625,33.3819580078125,-1.8072509765625,0.955810546875
2021-09-24 22:49:08.041274,0.0322265625,0.56103515625,0.85595703125,33.3819580078125,-1.8072509765625,0.955810546875
2021-09-24 22:49:08.041425,0.03369140625,0.56298828125,0.85400390625,33.3819580078125,-1.8072509765625,0.955810546875
2021-09-24 22:49:08.041568,0.0322265625,0.56201171875,0.853515625,33.3819580078125,-1.8072509765625,0.955810546875
2021-09-24 22:49:08.041707,0.03271484375,0.56201171875,0.8544921875,33.3819580078125,-1.8072509765625,0.955810546875
2021-09-24 22:49:08.041854,0.033203125,0.5634765625,0.85205078125,33.3819580078125,-1.8072509765625,0.955810546875
2021-09-24 22:49:08.042035,0.0322265625,0.56298828125,0.853515625,33.3819580078125,-1.8072509765625,0.955810546875
2021-09-24 22:49:08.042198,0.03271484375,0.560546875,0.8564453125,33.3819580078125,-1.8072509765625,0.955810546875
2021-09-24 22:49:08.042349,0.03125,0.56201171875,0.85400390625,33.3819580078125,-1.8072509765625,0.955810546875
2021-09-24 22:49:08.042500,0.03125,0.5615234375,0.85546875,33.3819580078125,-1.8072509765625,0.955810546875
2021-09-24 22:49:08.042649,0.03271484375,0.560546875,0.85595703125,33.3819580078125,-1.8072509765625,0.955810546875
2021-09-24 22:49:08.042789,0.033203125,0.56298828125,0.85302734375,33.37646484375,-1.8072509765625,0.955810546875
2021-09-24 22:49:08.042915,0.0341796875,0.5625,0.8544921875,33.37646484375,-1.8072509765625,0.955810546875
2021-09-24 22:49:08.043033,0.03271484375,0.56298828125,0.8544921875,33.37646484375,-1.8072509765625,0.955810546875
2021-09-24 22:49:08.043161,0.0322265625,0.56396484375,0.85302734375,33.37646484375,-1.8072509765625,0.955810546875
2021-09-24 22:49:08.043285,0.03173828125,0.56298828125,0.85400390625,33.37646484375,-1.8072509765625,0.955810546875
2021-09-24 22:49:08.043414,0.03125,0.56103515625,0.8525390625,33.37646484375,-1.8072509765625,0.955810546875
2021-09-24 22:49:08.043538,0.0302734375,0.56201171875,0.85400390625,33.37646484375,-1.8072509765625,0.955810546875
2021-09-24 22:49:08.043660,0.0322265625,0.5625,0.85693359375,33.37646484375,-1.8072509765625,0.955810546875
2021-09-24 22:49:08.043780,0.03173828125,0.56201171875,0.8525390625,33.37646484375,-1.8072509765625,0.955810546875
2021-09-24 22:49:08.043902,0.03125,0.5625,0.85498046875,33.37646484375,-1.8072509765625,0.955810546875
2021-09-24 22:49:08.044023,0.03369140625,0.56396484375,0.8544921875,33.37646484375,-1.8072509765625,0.955810546875
2021-09-24 22:49:08.044145,0.03173828125,0.56201171875,0.853515625,33.37646484375,-1.8072509765625,0.955810546875
2021-09-24 22:49:08.044265,0.0322265625,0.5634765625,0.85205078125,33.37646484375,-1.8072509765625,0.955810546875
2021-09-24 22:49:08.044385,0.03173828125,0.56298828125,0.85107421875,33.37646484375,-1.8072509765625,0.955810546875
2021-09-24 22:49:08.044505,0.033203125,0.56103515625,0.8583984375,33.3819580078125,-1.8072509765625,0.955810546875
2021-09-24 22:49:08.044626,0.03369140625,0.56103515625,0.8564453125,33.37646484375,-1.8072509765625,0.955810546875
2021-09-24 22:49:08.044746,0.03271484375,0.56201171875,0.853515625,33.37646484375,-1.8072509765625,0.955810546875
2021-09-24 22:49:08.044867,0.03369140625,0.5625,0.85546875,33.37646484375,-1.8072509765625,0.955810546875
2021-09-24 22:49:08.044985,0.03125,0.56396484375,0.8544921875,33.37646484375,-1.8072509765625,0.955810546875
2021-09-24 22:49:08.045128,0.033203125,0.56494140625,0.857421875,33.37646484375,-1.8072509765625,0.955810546875
2021-09-24 22:49:08.045260,0.0322265625,0.5634765625,0.8564453125,33.37646484375,-1.8072509765625,0.955810546875
2021-09-24 22:49:08.045388,0.03173828125,0.56298828125,0.85400390625,33.37646484375,-1.8072509765625,0.955810546875
2021-09-24 22:49:08.045519,0.03173828125,0.56103515625,0.85400390625,33.37646484375,-1.8072509765625,0.955810546875
2021-09-24 22:49:08.045643,0.03125,0.56298828125,0.85498046875,33.37646484375,-1.8072509765625,0.955810546875
2021-09-24 22:49:08.045773,0.0302734375,0.5615234375,0.853515625,33.37646484375,-1.8072509765625,0.955810546875
2021-09-24 22:49:08.045901,0.03125,0.5615234375,0.85546875,33.37646484375,-1.8072509765625,0.955810546875
2021-09-24 22:49:08.046031,0.03125,0.56298828125,0.85107421875,33.3709716796875,-1.8072509765625,0.955810546875
2021-09-24 22:49:08.046160,0.03369140625,0.56201171875,0.8515625,33.37646484375,-1.8072509765625,0.955810546875
2021-09-24 22:49:08.046283,0.03271484375,0.5625,0.853515625,33.37646484375,-1.8072509765625,0.955810546875
2021-09-24 22:49:08.046404,0.0322265625,0.5634765625,0.85205078125,33.37646484375,-1.8072509765625,0.955810546875
2021-09-24 22:49:08.046535,0.03173828125,0.560546875,0.857421875,33.37646484375,-1.8072509765625,0.955810546875
2021-09-24 22:49:08.046663,0.03173828125,0.56201171875,0.85595703125,33.37646484375,-1.8072509765625,0.955810546875
2021-09-24 22:49:08.046800,0.0322265625,0.56396484375,0.85498046875,33.3709716796875,-1.8072509765625,0.955810546875
2021-09-24 22:49:08.046940,0.033203125,0.56201171875,0.853515625,33.3709716796875,-1.8072509765625,0.955810546875
2021-09-24 22:49:08.047078,0.03173828125,0.5625,0.85498046875,33.3709716796875,-1.8072509765625,0.955810546875
2021-09-24 22:49:08.047210,0.03369140625,0.56201171875,0.85546875,33.3709716796875,-1.8072509765625,0.955810546875
2021-09-24 22:49:08.047344,0.03369140625,0.56298828125,0.853515625,33.3709716796875,-1.8072509765625,0.955810546875
2021-09-24 22:49:08.047486,0.033203125,0.5625,0.85205078125,33.3709716796875,-1.8072509765625,0.955810546875
2021-09-24 22:49:08.047641,0.03369140625,0.56005859375,0.8544921875,33.3709716796875,-1.8072509765625,0.955810546875
2021-09-24 22:49:08.047776,0.0322265625,0.56005859375,0.85400390625,33.3709716796875,-1.8072509765625,0.955810546875
2021-09-24 22:49:08.047900,0.03173828125,0.56005859375,0.85107421875,33.3709716796875,-1.8072509765625,0.955810546875
2021-09-24 22:49:08.048023,0.02978515625,0.5634765625,0.8544921875,33.3709716796875,-1.8072509765625,0.955810546875
2021-09-24 22:49:08.048148,0.03125,0.5625,0.85205078125,33.3709716796875,-1.8072509765625,0.955810546875
2021-09-24 22:49:08.048280,0.0322265625,0.564453125,0.85546875,33.3709716796875,-1.8072509765625,0.955810546875
2021-09-24 22:49:08.048395,0.0341796875,0.5654296875,0.85498046875,33.3709716796875,-1.8072509765625,0.955810546875
2021-09-24 22:49:08.048530,0.03173828125,0.564453125,0.8525390625,33.3709716796875,-1.8072509765625,0.955810546875
2021-09-24 22:49:08.048654,0.033203125,0.564453125,0.85498046875,33.37646484375,-1.8072509765625,0.955810546875
2021-09-24 22:49:08.048752,0.03271484375,0.5625,0.85546875,33.37646484375,-1.8072509765625,0.955810546875
2021-09-24 22:49:08.048848,0.0322265625,0.56201171875,0.8525390625,33.37646484375,-1.8072509765625,0.955810546875
2021-09-24 22:49:08.048945,0.03173828125,0.56201171875,0.85693359375,33.37646484375,-1.8072509765625,0.955810546875
2021-09-24 22:49:08.049041,0.033203125,0.56298828125,0.8515625,33.3709716796875,-1.8072509765625,0.955810546875
2021-09-24 22:49:08.049137,0.03173828125,0.56396484375,0.8505859375,33.37646484375,-1.8072509765625,0.955810546875
2021-09-24 22:49:08.049257,0.033203125,0.56396484375,0.85595703125,33.37646484375,-1.8072509765625,0.955810546875
2021-09-24 22:49:08.049393,0.0322265625,0.56396484375,0.8515625,33.37646484375,-1.8072509765625,0.955810546875
2021-09-24 22:49:08.049542,0.03125,0.56298828125,0.85205078125,33.37646484375,-1.8072509765625,0.955810546875
2021-09-24 22:49:08.049692,0.03125,0.56103515625,0.853515625,33.37646484375,-1.8072509765625,0.955810546875
2021-09-24 22:49:08.049828,0.029296875,0.56201171875,0.8544921875,33.37646484375,-1.8072509765625,0.955810546875
2021-09-24 22:49:08.049968,0.03125,0.5625,0.85595703125,33.37646484375,-1.8017578125,0.955810546875
2021-09-24 22:49:08.050116,0.0322265625,0.5625,0.8515625,33.37646484375,-1.8017578125,0.955810546875
2021-09-24 22:49:08.050287,0.033203125,0.56103515625,0.8544921875,33.37646484375,-1.8017578125,0.955810546875
2021-09-24 22:49:08.050432,0.03173828125,0.5615234375,0.85400390625,33.37646484375,-1.8017578125,0.955810546875
2021-09-24 22:49:08.050575,0.03173828125,0.564453125,0.85302734375,33.37646484375,-1.8017578125,0.955810546875
2021-09-24 22:49:08.050720,0.03125,0.5634765625,0.85400390625,33.37646484375,-1.8017578125,0.955810546875
2021-09-24 22:49:08.050872,0.033203125,0.56201171875,0.85400390625,33.37646484375,-1.8017578125,0.955810546875
2021-09-24 22:49:08.051023,0.033203125,0.56396484375,0.8525390625,33.37646484375,-1.8017578125,0.955810546875
2021-09-24 22:49:08.051159,0.03173828125,0.5625,0.85400390625,33.37646484375,-1.8017578125,0.955810546875
2021-09-24 22:49:08.051285,0.0322265625,0.5615234375,0.85205078125,33.37646484375,-1.8017578125,0.955810546875
2021-09-24 22:49:08.051412,0.03369140625,0.5625,0.85302734375,33.37646484375,-1.8017578125,0.955810546875
2021-09-24 22:49:08.051545,0.03271484375,0.560546875,0.85693359375,33.37646484375,-1.8072509765625,0.955810546875
2021-09-24 22:49:08.051673,0.0322265625,0.5625,0.85302734375,33.37646484375,-1.8072509765625,0.955810546875
2021-09-24 22:49:08.051797,0.03466796875,0.56201171875,0.85546875,33.37646484375,-1.8072509765625,0.955810546875
2021-09-24 22:49:08.051921,0.03271484375,0.56103515625,0.85498046875,33.37646484375,-1.8072509765625,0.955810546875
2021-09-24 22:49:08.052046,0.033203125,0.5615234375,0.8544921875,33.37646484375,-1.8072509765625,0.955810546875
2021-09-24 22:49:08.052170,0.0322265625,0.5625,0.85595703125,33.3709716796875,-1.8072509765625,0.955810546875
2021-09-24 22:49:08.052295,0.03173828125,0.56201171875,0.8515625,33.3709716796875,-1.8072509765625,0.955810546875
2021-09-24 22:49:08.052419,0.0322265625,0.5634765625,0.85400390625,33.3709716796875,-1.8072509765625,0.955810546875
2021-09-24 22:49:08.052542,0.0322265625,0.5634765625,0.85546875,33.37646484375,-1.8072509765625,0.955810546875
2021-09-24 22:49:08.052667,0.03271484375,0.564453125,0.85400390625,33.37646484375,-1.8072509765625,0.955810546875
2021-09-24 22:49:08.052793,0.03125,0.5615234375,0.85546875,33.37646484375,-1.8072509765625,0.955810546875
2021-09-24 22:49:08.052916,0.03369140625,0.56298828125,0.85400390625,33.3709716796875,-1.8017578125,0.955810546875
2021-09-24 22:49:08.053041,0.03271484375,0.56396484375,0.85498046875,33.37646484375,-1.8072509765625,0.955810546875
2021-09-24 22:49:08.053166,0.03076171875,0.56298828125,0.8515625,33.37646484375,-1.8072509765625,0.955810546875
2021-09-24 22:49:08.053301,0.03125,0.56396484375,0.853515625,33.37646484375,-1.8017578125,0.955810546875
2021-09-24 22:49:08.053434,0.03271484375,0.5634765625,0.85498046875,33.37646484375,-1.8017578125,0.955810546875
2021-09-24 22:49:08.053569,0.033203125,0.5634765625,0.8544921875,33.37646484375,-1.8017578125,0.955810546875
2021-09-24 22:49:08.053701,0.033203125,0.56396484375,0.85302734375,33.37646484375,-1.8017578125,0.955810546875
2021-09-24 22:49:08.053836,0.0322265625,0.564453125,0.85400390625,33.37646484375,-1.8017578125,0.955810546875
2021-09-24 22:49:08.053967,0.0322265625,0.56298828125,0.853515625,33.37646484375,-1.8017578125,0.955810546875
2021-09-24 22:49:08.054097,0.03173828125,0.56298828125,0.8525390625,33.37646484375,-1.8017578125,0.955810546875
2021-09-24 22:49:08.054228,0.03173828125,0.560546875,0.853515625,33.37646484375,-1.8017578125,0.955810546875
2021-09-24 22:49:08.054360,0.03125,0.5634765625,0.8544921875,33.37646484375,-1.8017578125,0.955810546875
2021-09-24 22:49:08.054493,0.03271484375,0.5634765625,0.85107421875,33.37646484375,-1.8017578125,0.955810546875
2021-09-24 22:49:08.054633,0.0322265625,0.5625,0.8525390625,33.3819580078125,-1.8017578125,0.955810546875
2021-09-24 22:49:08.054774,0.03076171875,0.5634765625,0.8515625,33.3819580078125,-1.8017578125,0.955810546875
2021-09-24 22:49:08.054911,0.0302734375,0.56298828125,0.85498046875,33.3819580078125,-1.8017578125,0.955810546875
2021-09-24 22:49:08.055050,0.03125,0.56298828125,0.85546875,33.3819580078125,-1.8017578125,0.955810546875
2021-09-24 22:49:08.055194,0.03173828125,0.5615234375,0.85498046875,33.3819580078125,-1.8017578125,0.955810546875
2021-09-24 22:49:08.055306,0.0302734375,0.560546875,0.8583984375,33.3819580078125,-1.8017578125,0.955810546875
2021-09-24 22:49:08.055421,0.03125,0.56103515625,0.85400390625,33.37646484375,-1.7962646484375,0.955810546875
2021-09-24 22:49:08.055522,0.03369140625,0.5634765625,0.85693359375,33.37646484375,-1.7962646484375,0.955810546875
2021-09-24 22:49:08.055624,0.0322265625,0.5654296875,0.85546875,33.37646484375,-1.7962646484375,0.955810546875
2021-09-24 22:49:08.055724,0.033203125,0.56494140625,0.8525390625,33.37646484375,-1.7962646484375,0.955810546875
2021-09-24 22:49:08.055825,0.03271484375,0.564453125,0.85302734375,33.37646484375,-1.8017578125,0.955810546875
2021-09-24 22:49:08.055924,0.0322265625,0.56298828125,0.85400390625,33.3819580078125,-1.8017578125,0.955810546875
2021-09-24 22:49:08.056025,0.029296875,0.56103515625,0.85546875,33.3819580078125,-1.8017578125,0.955810546875
2021-09-24 22:49:08.056183,0.0322265625,0.5615234375,0.853515625,33.37646484375,-1.7962646484375,0.955810546875
2021-09-24 22:49:08.056336,0.033203125,0.56298828125,0.85302734375,33.37646484375,-1.7962646484375,0.955810546875
2021-09-24 22:49:08.056496,0.033203125,0.56396484375,0.85546875,33.37646484375,-1.8017578125,0.955810546875
2021-09-24 22:49:08.056644,0.03369140625,0.5634765625,0.85546875,33.37646484375,-1.8017578125,0.955810546875
2021-09-24 22:49:08.056757,0.0322265625,0.56298828125,0.853515625,33.37646484375,-1.8017578125,0.955810546875
2021-09-24 22:49:08.056880,0.0322265625,0.56103515625,0.8544921875,33.37646484375,-1.8017578125,0.955810546875
2021-09-24 22:49:08.056989,0.0322265625,0.56201171875,0.8544921875,33.37646484375,-1.8017578125,0.955810546875
2021-09-24 22:49:08.057107,0.03173828125,0.56201171875,0.853515625,33.37646484375,-1.8017578125,0.955810546875
2021-09-24 22:49:08.057216,0.03076171875,0.56103515625,0.85498046875,33.37646484375,-1.8017578125,0.955810546875
2021-09-24 22:49:08.057346,0.03369140625,0.5625,0.85498046875,33.37646484375,-1.8017578125,0.955810546875
2021-09-24 22:49:08.057466,0.03173828125,0.5625,0.85546875,33.37646484375,-1.8017578125,0.955810546875
2021-09-24 22:49:08.057610,0.03173828125,0.5625,0.8564453125,33.37646484375,-1.8017578125,0.955810546875
2021-09-24 22:49:08.057751,0.0322265625,0.56396484375,0.85400390625,33.37646484375,-1.8017578125,0.955810546875
2021-09-24 22:49:08.057888,0.03271484375,0.56298828125,0.85302734375,33.37646484375,-1.8017578125,0.955810546875
2021-09-24 22:49:08.058041,0.03271484375,0.5615234375,0.853515625,33.37646484375,-1.8017578125,0.955810546875
2021-09-24 22:49:08.058191,0.03173828125,0.56396484375,0.85595703125,33.37646484375,-1.8017578125,0.955810546875
2021-09-24 22:49:08.058343,0.03173828125,0.56298828125,0.85546875,33.37646484375,-1.8017578125,0.955810546875
2021-09-24 22:49:08.058491,0.03369140625,0.5625,0.85400390625,33.37646484375,-1.8017578125,0.955810546875
2021-09-24 22:49:08.058639,0.03466796875,0.56298828125,0.8544921875,33.37646484375,-1.8017578125,0.955810546875
2021-09-24 22:49:08.058774,0.033203125,0.56298828125,0.8515625,33.37646484375,-1.8017578125,0.955810546875
2021-09-24 22:49:08.058919,0.033203125,0.5634765625,0.853515625,33.37646484375,-1.8017578125,0.955810546875
2021-09-24 22:49:08.059056,0.0322265625,0.564453125,0.85302734375,33.37646484375,-1.8017578125,0.955810546875
2021-09-24 22:49:08.059197,0.03076171875,0.5654296875,0.85205078125,33.37646484375,-1.8017578125,0.955810546875
2021-09-24 22:49:08.059332,0.0322265625,0.5634765625,0.8525390625,33.37646484375,-1.8017578125,0.955810546875
2021-09-24 22:49:08.059473,0.03369140625,0.5615234375,0.8564453125,33.3819580078125,-1.8017578125,0.955810546875
2021-09-24 22:49:08.059616,0.0341796875,0.560546875,0.85400390625,33.37646484375,-1.8017578125,0.955810546875
2021-09-24 22:49:08.059727,0.03173828125,0.5595703125,0.8544921875,33.37646484375,-1.8017578125,0.955810546875
2021-09-24 22:49:08.059829,0.03271484375,0.560546875,0.85546875,33.37646484375,-1.8017578125,0.955810546875
2021-09-24 22:49:08.059947,0.03173828125,0.56201171875,0.85498046875,33.37646484375,-1.8017578125,0.955810546875
2021-09-24 22:49:08.060065,0.03173828125,0.5625,0.8515625,33.37646484375,-1.8017578125,0.955810546875
2021-09-24 22:49:08.060198,0.0302734375,0.56103515625,0.85107421875,33.37646484375,-1.8017578125,0.955810546875
2021-09-24 22:49:08.060329,0.03125,0.56103515625,0.8525390625,33.37646484375,-1.8017578125,0.955810546875
2021-09-24 22:49:08.060463,0.03173828125,0.56298828125,0.85498046875,33.37646484375,-1.8017578125,0.955810546875
2021-09-24 22:49:08.060602,0.03173828125,0.564453125,0.8544921875,33.3709716796875,-1.8017578125,0.955810546875
2021-09-24 22:49:08.060744,0.03076171875,0.56298828125,0.8515625,33.3709716796875,-1.7962646484375,0.955810546875
2021-09-24 22:49:08.060889,0.0322265625,0.564453125,0.8544921875,33.3709716796875,-1.7962646484375,0.955810546875
2021-09-24 22:49:08.061033,0.033203125,0.56396484375,0.85400390625,33.3709716796875,-1.7962646484375,0.955810546875
2021-09-24 22:49:08.061188,0.033203125,0.5615234375,0.8505859375,33.37646484375,-1.7962646484375,0.955810546875
2021-09-24 22:49:08.061377,0.03369140625,0.5625,0.85400390625,33.37646484375,-1.7962646484375,0.955810546875
2021-09-24 22:49:08.061522,0.03125,0.56298828125,0.85400390625,33.37646484375,-1.7962646484375,0.955810546875
2021-09-24 22:49:08.061665,0.03173828125,0.5634765625,0.85205078125,33.37646484375,-1.7962646484375,0.955810546875
2021-09-24 22:49:08.061810,0.03076171875,0.5634765625,0.8525390625,33.37646484375,-1.7962646484375,0.955810546875
2021-09-24 22:49:08.061950,0.03076171875,0.5625,0.8544921875,33.37646484375,-1.790771484375,0.955810546875
2021-09-24 22:49:08.062087,0.03125,0.5615234375,0.85791015625,33.37646484375,-1.7962646484375,0.955810546875
2021-09-24 22:49:08.062232,0.0302734375,0.56201171875,0.85498046875,33.37646484375,-1.7962646484375,0.955810546875
2021-09-24 22:49:08.062381,0.0322265625,0.56201171875,0.8525390625,33.37646484375,-1.7962646484375,0.955810546875
2021-09-24 22:49:08.062526,0.03076171875,0.5625,0.8515625,33.37646484375,-1.7962646484375,0.955810546875
2021-09-24 22:49:08.062672,0.0322265625,0.56298828125,0.85400390625,33.37646484375,-1.7962646484375,0.955810546875
2021-09-24 22:49:08.062814,0.03271484375,0.5634765625,0.853515625,33.37646484375,-1.790771484375,0.955810546875
2021-09-24 22:49:08.062952,0.03271484375,0.5625,0.8544921875,33.37646484375,-1.7962646484375,0.955810546875
2021-09-24 22:49:08.063091,0.03125,0.5625,0.85205078125,33.37646484375,-1.7962646484375,0.955810546875
2021-09-24 22:49:08.063240,0.03076171875,0.56103515625,0.853515625,33.37646484375,-1.790771484375,0.955810546875
2021-09-24 22:49:08.063383,0.03173828125,0.56298828125,0.85498046875,33.37646484375,-1.790771484375,0.955810546875
2021-09-24 22:49:08.063537,0.03076171875,0.5634765625,0.85302734375,33.3709716796875,-1.790771484375,0.955810546875
2021-09-24 22:49:08.063689,0.0322265625,0.5654296875,0.8564453125,33.3709716796875,-1.790771484375,0.955810546875
2021-09-24 22:49:08.063841,0.033203125,0.564453125,0.85498046875,33.3709716796875,-1.790771484375,0.955810546875
2021-09-24 22:49:08.063987,0.0322265625,0.5625,0.85400390625,33.3709716796875,-1.790771484375,0.955810546875
2021-09-24 22:49:08.064132,0.03173828125,0.56298828125,0.85400390625,33.3709716796875,-1.790771484375,0.955810546875
2021-09-24 22:49:08.064273,0.0322265625,0.5615234375,0.853515625,33.3709716796875,-1.790771484375,0.955810546875
2021-09-24 22:49:08.064410,0.0322265625,0.56298828125,0.8525390625,33.3709716796875,-1.790771484375,0.955810546875
2021-09-24 22:49:08.064554,0.0322265625,0.5634765625,0.85009765625,33.3709716796875,-1.790771484375,0.955810546875
2021-09-24 22:49:08.064699,0.03173828125,0.5615234375,0.8515625,33.37646484375,-1.7852783203125,0.955810546875
2021-09-24 22:49:08.064841,0.0322265625,0.5634765625,0.8525390625,33.37646484375,-1.7852783203125,0.955810546875
2021-09-24 22:49:08.064986,0.0302734375,0.5615234375,0.85400390625,33.37646484375,-1.7852783203125,0.955810546875
2021-09-24 22:49:08.065128,0.03076171875,0.5615234375,0.85595703125,33.37646484375,-1.7852783203125,0.955810546875
2021-09-24 22:49:08.065286,0.03076171875,0.5634765625,0.85693359375,33.3709716796875,-1.7852783203125,0.955810546875
2021-09-24 22:49:08.065427,0.0322265625,0.5625,0.85498046875,33.3709716796875,-1.7852783203125,0.955810546875
2021-09-24 22:49:08.065569,0.03125,0.564453125,0.85498046875,33.3709716796875,-1.7852783203125,0.955810546875
2021-09-24 22:49:08.065713,0.03173828125,0.56396484375,0.85498046875,33.3709716796875,-1.7852783203125,0.955810546875
2021-09-24 22:49:08.065857,0.03076171875,0.5625,0.8525390625,33.3709716796875,-1.7852783203125,0.955810546875
2021-09-24 22:49:08.066007,0.03173828125,0.5615234375,0.85498046875,33.37646484375,-1.7852783203125,0.955810546875
2021-09-24 22:49:08.066150,0.03125,0.560546875,0.85498046875,33.3709716796875,-1.7852783203125,0.955810546875
2021-09-24 22:49:08.066299,0.0322265625,0.56396484375,0.8564453125,33.3709716796875,-1.7852783203125,0.955810546875
2021-09-24 22:49:08.066466,0.03271484375,0.56103515625,0.85595703125,33.3709716796875,-1.7852783203125,0.955810546875
2021-09-24 22:49:08.066632,0.029296875,0.56103515625,0.8525390625,33.3709716796875,-1.7852783203125,0.955810546875
2021-09-24 22:49:08.066774,0.02880859375,0.56103515625,0.8544921875,33.3709716796875,-1.77978515625,0.955810546875
2021-09-24 22:49:08.066899,0.03076171875,0.56201171875,0.853515625,33.3709716796875,-1.77978515625,0.955810546875
2021-09-24 22:49:08.067022,0.0322265625,0.56298828125,0.85302734375,33.3709716796875,-1.77978515625,0.955810546875
2021-09-24 22:49:08.067143,0.03271484375,0.56298828125,0.85498046875,33.3709716796875,-1.77978515625,0.955810546875
2021-09-24 22:49:08.067242,0.03173828125,0.56298828125,0.857421875,33.3709716796875,-1.77978515625,0.955810546875
2021-09-24 22:49:08.067338,0.03466796875,0.5625,0.85693359375,33.3709716796875,-1.77978515625,0.955810546875
2021-09-24 22:49:08.067457,0.03173828125,0.56201171875,0.8583984375,33.365478515625,-1.77978515625,0.955810546875
2021-09-24 22:49:08.067583,0.03125,0.5615234375,0.85791015625,33.365478515625,-1.77978515625,0.955810546875
2021-09-24 22:49:08.067712,0.03173828125,0.5615234375,0.853515625,33.365478515625,-1.77978515625,0.955810546875
2021-09-24 22:49:08.067841,0.033203125,0.56298828125,0.85302734375,33.365478515625,-1.77978515625,0.955810546875
2021-09-24 22:49:08.067969,0.0302734375,0.5625,0.8544921875,33.365478515625,-1.7852783203125,0.955810546875
2021-09-24 22:49:08.068090,0.02978515625,0.5625,0.85302734375,33.365478515625,-1.77978515625,0.955810546875
2021-09-24 22:49:08.068201,0.0322265625,0.56494140625,0.8505859375,33.365478515625,-1.77978515625,0.955810546875
2021-09-24 22:49:08.068313,0.03173828125,0.5625,0.85302734375,33.365478515625,-1.77978515625,0.955810546875
2021-09-24 22:49:08.068427,0.03076171875,0.5615234375,0.85498046875,33.365478515625,-1.77978515625,0.955810546875
2021-09-24 22:49:08.068529,0.0322265625,0.5634765625,0.85302734375,33.365478515625,-1.77978515625,0.955810546875
2021-09-24 22:49:08.068630,0.03271484375,0.56396484375,0.85400390625,33.365478515625,-1.77978515625,0.955810546875
2021-09-24 22:49:08.068730,0.033203125,0.56494140625,0.8544921875,33.365478515625,-1.77978515625,0.955810546875
2021-09-24 22:49:08.068830,0.0322265625,0.56298828125,0.85205078125,33.365478515625,-1.77978515625,0.955810546875
2021-09-24 22:49:08.068929,0.033203125,0.56103515625,0.8544921875,33.3709716796875,-1.77978515625,0.955810546875
2021-09-24 22:49:08.069029,0.033203125,0.56103515625,0.8544921875,33.365478515625,-1.7852783203125,0.955810546875
2021-09-24 22:49:08.069129,0.03173828125,0.56201171875,0.8515625,33.365478515625,-1.7852783203125,0.955810546875
2021-09-24 22:49:08.069236,0.02880859375,0.56103515625,0.85400390625,33.365478515625,-1.7852783203125,0.955810546875
2021-09-24 22:49:08.069339,0.029296875,0.5634765625,0.85498046875,33.365478515625,-1.7852783203125,0.955810546875
2021-09-24 22:49:08.069440,0.0302734375,0.56396484375,0.85302734375,33.365478515625,-1.77978515625,0.955810546875
2021-09-24 22:49:08.069540,0.03173828125,0.56201171875,0.85400390625,33.365478515625,-1.77978515625,0.955810546875
2021-09-24 22:49:08.069664,0.0302734375,0.564453125,0.85400390625,33.365478515625,-1.77978515625,0.955810546875
2021-09-24 22:49:08.069802,0.03271484375,0.5634765625,0.85302734375,33.3709716796875,-1.77978515625,0.955810546875
2021-09-24 22:49:08.069933,0.03173828125,0.5625,0.853515625,33.3709716796875,-1.77978515625,0.955810546875
2021-09-24 22:49:08.070060,0.03125,0.56201171875,0.853515625,33.3709716796875,-1.7742919921875,0.955810546875
2021-09-24 22:49:08.070186,0.03076171875,0.56103515625,0.8525390625,33.3709716796875,-1.7742919921875,0.955810546875
2021-09-24 22:49:08.070315,0.0322265625,0.560546875,0.85400390625,33.3709716796875,-1.7742919921875,0.955810546875
2021-09-24 22:49:08.070429,0.0322265625,0.56201171875,0.85107421875,33.3709716796875,-1.7742919921875,0.955810546875
2021-09-24 22:49:08.070542,0.0302734375,0.5625,0.8525390625,33.3709716796875,-1.77978515625,0.955810546875
2021-09-24 22:49:08.070670,0.03271484375,0.5615234375,0.85498046875,33.3709716796875,-1.7742919921875,0.955810546875
2021-09-24 22:49:08.070811,0.03125,0.56298828125,0.85498046875,33.3709716796875,-1.7742919921875,0.955810546875
2021-09-24 22:49:08.070956,0.033203125,0.56298828125,0.85400390625,33.3709716796875,-1.7742919921875,0.955810546875
2021-09-24 22:49:08.071102,0.03271484375,0.5615234375,0.85400390625,33.3709716796875,-1.7742919921875,0.955810546875
2021-09-24 22:49:08.071249,0.0322265625,0.5615234375,0.85498046875,33.3709716796875,-1.7742919921875,0.955810546875
2021-09-24 22:49:08.071395,0.03369140625,0.5634765625,0.8525390625,33.365478515625,-1.7742919921875,0.955810546875
2021-09-24 22:49:08.071540,0.03271484375,0.56201171875,0.85302734375,33.3709716796875,-1.7742919921875,0.955810546875
2021-09-24 22:49:08.071684,0.03173828125,0.5615234375,0.857421875,33.3709716796875,-1.7742919921875,0.955810546875
2021-09-24 22:49:08.071838,0.033203125,0.5634765625,0.85400390625,33.365478515625,-1.7742919921875,0.955810546875
2021-09-24 22:49:08.071988,0.0341796875,0.5625,0.85595703125,33.365478515625,-1.7742919921875,0.955810546875
2021-09-24 22:49:08.072129,0.03369140625,0.5625,0.8505859375,33.365478515625,-1.77978515625,0.955810546875
2021-09-24 22:49:08.072271,0.03271484375,0.56298828125,0.85595703125,33.365478515625,-1.77978515625,0.955810546875
2021-09-24 22:49:08.072416,0.03271484375,0.5634765625,0.8564453125,33.365478515625,-1.77978515625,0.955810546875
2021-09-24 22:49:08.072558,0.033203125,0.56298828125,0.8544921875,33.365478515625,-1.77978515625,0.955810546875
2021-09-24 22:49:08.072698,0.0341796875,0.56201171875,0.8544921875,33.365478515625,-1.77978515625,0.955810546875
2021-09-24 22:49:08.072838,0.03515625,0.5625,0.853515625,33.365478515625,-1.77978515625,0.955810546875
2021-09-24 22:49:08.072975,0.0322265625,0.56201171875,0.853515625,33.365478515625,-1.77978515625,0.955810546875
2021-09-24 22:49:08.073118,0.03173828125,0.5625,0.8544921875,33.365478515625,-1.77978515625,0.955810546875
2021-09-24 22:49:08.073283,0.03173828125,0.5634765625,0.8544921875,33.365478515625,-1.77978515625,0.955810546875
2021-09-24 22:49:08.073440,0.033203125,0.5634765625,0.8544921875,33.365478515625,-1.77978515625,0.955810546875
2021-09-24 22:49:08.073597,0.03271484375,0.5625,0.85498046875,33.365478515625,-1.7852783203125,0.955810546875
2021-09-24 22:49:08.073734,0.03271484375,0.56396484375,0.85546875,33.365478515625,-1.7852783203125,0.955810546875
2021-09-24 22:49:08.073872,0.03125,0.56396484375,0.85498046875,33.365478515625,-1.7852783203125,0.955810546875
2021-09-24 22:49:08.074009,0.029296875,0.5625,0.8515625,33.365478515625,-1.7852783203125,0.955810546875
2021-09-24 22:49:08.074110,0.03173828125,0.56298828125,0.85205078125,33.3709716796875,-1.7852783203125,0.955810546875
2021-09-24 22:49:08.074239,0.03173828125,0.5625,0.8515625,33.3709716796875,-1.7852783203125,0.955810546875
2021-09-24 22:49:08.074427,0.03271484375,0.56201171875,0.85302734375,33.3709716796875,-1.7852783203125,0.955810546875
2021-09-24 22:49:08.074539,0.03271484375,0.5634765625,0.85400390625,33.3709716796875,-1.77978515625,0.955810546875
2021-09-24 22:49:08.074694,0.03271484375,0.5625,0.8544921875,33.3709716796875,-1.7852783203125,0.955810546875
2021-09-24 22:49:08.074853,0.033203125,0.560546875,0.85302734375,33.3709716796875,-1.7852783203125,0.955810546875
2021-09-24 22:49:08.075014,0.03466796875,0.5615234375,0.853515625,33.3709716796875,-1.7852783203125,0.955810546875
2021-09-24 22:49:08.075133,0.03369140625,0.5615234375,0.8515625,33.3709716796875,-1.7852783203125,0.955810546875
2021-09-24 22:49:08.075239,0.0322265625,0.56201171875,0.85302734375,33.3709716796875,-1.7852783203125,0.955810546875
2021-09-24 22:49:08.075353,0.03173828125,0.56396484375,0.85302734375,33.3709716796875,-1.7852783203125,0.955810546875
2021-09-24 22:49:08.075464,0.03076171875,0.5625,0.853515625,33.3709716796875,-1.7852783203125,0.955810546875
2021-09-24 22:49:08.075574,0.03076171875,0.56201171875,0.85107421875,33.3709716796875,-1.7852783203125,0.955810546875
2021-09-24 22:49:08.075704,0.03173828125,0.560546875,0.853515625,33.3709716796875,-1.7852783203125,0.955810546875
2021-09-24 22:49:08.075854,0.03125,0.56298828125,0.8505859375,33.3709716796875,-1.7852783203125,0.955810546875
2021-09-24 22:49:08.075993,0.03173828125,0.56396484375,0.8525390625,33.3709716796875,-1.7852783203125,0.955810546875
2021-09-24 22:49:08.076118,0.0322265625,0.56494140625,0.85107421875,33.3709716796875,-1.7852783203125,0.955810546875
2021-09-24 22:49:08.076239,0.0322265625,0.56396484375,0.85205078125,33.37646484375,-1.7852783203125,0.955810546875
2021-09-24 22:49:08.076386,0.03076171875,0.56298828125,0.85302734375,33.37646484375,-1.7852783203125,0.955810546875
2021-09-24 22:49:08.076505,0.033203125,0.56201171875,0.85107421875,33.37646484375,-1.7852783203125,0.955810546875
2021-09-24 22:49:08.076614,0.03125,0.56103515625,0.85302734375,33.37646484375,-1.7852783203125,0.955810546875
2021-09-24 22:49:08.076724,0.02978515625,0.56103515625,0.85400390625,33.37646484375,-1.7852783203125,0.955810546875
2021-09-24 22:49:08.076838,0.0322265625,0.5615234375,0.85302734375,33.37646484375,-1.7852783203125,0.955810546875
2021-09-24 22:49:08.076953,0.0341796875,0.5615234375,0.85498046875,33.37646484375,-1.7852783203125,0.955810546875
2021-09-24 22:49:08.077065,0.0302734375,0.56201171875,0.85693359375,33.37646484375,-1.7852783203125,0.955810546875
2021-09-24 22:49:08.077186,0.03173828125,0.56201171875,0.85546875,33.37646484375,-1.7852783203125,0.955810546875
2021-09-24 22:49:08.077365,0.0322265625,0.564453125,0.85498046875,33.3709716796875,-1.7852783203125,0.955810546875
2021-09-24 22:49:08.077503,0.03125,0.5634765625,0.8564453125,33.37646484375,-1.7852783203125,0.955810546875
2021-09-24 22:49:08.077621,0.0341796875,0.5625,0.85302734375,33.3709716796875,-1.7852783203125,0.955810546875
2021-09-24 22:49:08.077726,0.03076171875,0.5634765625,0.85205078125,33.37646484375,-1.7852783203125,0.955810546875
2021-09-24 22:49:08.077828,0.03271484375,0.56298828125,0.85302734375,33.37646484375,-1.7852783203125,0.955810546875
2021-09-24 22:49:08.077941,0.02978515625,0.56298828125,0.85400390625,33.37646484375,-1.7852783203125,0.955810546875
2021-09-24 22:49:08.078053,0.03125,0.5625,0.85302734375,33.37646484375,-1.7852783203125,0.955810546875
2021-09-24 22:49:08.078167,0.0322265625,0.5625,0.85205078125,33.37646484375,-1.7852783203125,0.955810546875
2021-09-24 22:49:08.078278,0.033203125,0.56298828125,0.8525390625,33.37646484375,-1.7852783203125,0.955810546875
2021-09-24 22:49:08.078387,0.0322265625,0.5654296875,0.85107421875,33.37646484375,-1.7852783203125,0.955810546875
2021-09-24 22:49:08.078522,0.033203125,0.56396484375,0.85400390625,33.37646484375,-1.7852783203125,0.955810546875
2021-09-24 22:49:08.078629,0.03271484375,0.5625,0.8564453125,33.37646484375,-1.7852783203125,0.955810546875
2021-09-24 22:49:08.078742,0.03271484375,0.5625,0.853515625,33.37646484375,-1.7852783203125,0.955810546875
2021-09-24 22:49:08.078879,0.03173828125,0.5625,0.8544921875,33.37646484375,-1.7852783203125,0.955810546875
2021-09-24 22:49:08.079014,0.03076171875,0.5634765625,0.85400390625,33.37646484375,-1.7852783203125,0.955810546875
2021-09-24 22:49:08.079151,0.0322265625,0.5625,0.85205078125,33.37646484375,-1.7852783203125,0.955810546875
2021-09-24 22:49:08.079287,0.03369140625,0.56103515625,0.8525390625,33.37646484375,-1.7852783203125,0.955810546875
2021-09-24 22:49:08.079422,0.0341796875,0.5625,0.8544921875,33.37646484375,-1.7852783203125,0.955810546875
2021-09-24 22:49:08.079553,0.03271484375,0.56396484375,0.853515625,33.37646484375,-1.7852783203125,0.955810546875
2021-09-24 22:49:08.079684,0.0341796875,0.56103515625,0.85595703125,33.37646484375,-1.7852783203125,0.955810546875
2021-09-24 22:49:08.079819,0.03173828125,0.5625,0.85546875,33.37646484375,-1.790771484375,0.955810546875
2021-09-24 22:49:08.079958,0.033203125,0.56396484375,0.85693359375,33.37646484375,-1.7852783203125,0.955810546875
2021-09-24 22:49:08.080105,0.033203125,0.56396484375,0.8544921875,33.37646484375,-1.790771484375,0.955810546875
2021-09-24 22:49:08.080260,0.03369140625,0.56396484375,0.85107421875,33.37646484375,-1.790771484375,0.955810546875
2021-09-24 22:49:08.080401,0.03125,0.5634765625,0.85595703125,33.37646484375,-1.790771484375,0.955810546875
2021-09-24 22:49:08.080545,0.033203125,0.56201171875,0.85302734375,33.37646484375,-1.790771484375,0.955810546875
2021-09-24 22:49:08.080647,0.03271484375,0.56298828125,0.85302734375,33.37646484375,-1.790771484375,0.955810546875
2021-09-24 22:49:08.080775,0.03173828125,0.5634765625,0.85693359375,33.37646484375,-1.790771484375,0.955810546875
2021-09-24 22:49:08.080917,0.03076171875,0.56396484375,0.85546875,33.37646484375,-1.790771484375,0.955810546875
2021-09-24 22:49:08.081031,0.03173828125,0.56396484375,0.85693359375,33.37646484375,-1.790771484375,0.955810546875
2021-09-24 22:49:08.081171,0.03076171875,0.5634765625,0.85595703125,33.37646484375,-1.790771484375,0.955810546875
2021-09-24 22:49:08.081310,0.03173828125,0.5615234375,0.8515625,33.37646484375,-1.790771484375,0.955810546875
2021-09-24 22:49:08.081432,0.03173828125,0.56396484375,0.8525390625,33.37646484375,-1.790771484375,0.955810546875
2021-09-24 22:49:08.081571,0.0322265625,0.56396484375,0.85205078125,33.37646484375,-1.790771484375,0.955810546875
2021-09-24 22:49:08.081733,0.03515625,0.5615234375,0.85205078125,33.3819580078125,-1.790771484375,0.955810546875
2021-09-24 22:49:08.081886,0.03369140625,0.56298828125,0.85302734375,33.3819580078125,-1.790771484375,0.955810546875
2021-09-24 22:49:08.082022,0.0302734375,0.56298828125,0.85400390625,33.3819580078125,-1.790771484375,0.955810546875
2021-09-24 22:49:08.082164,0.03125,0.5615234375,0.8544921875,33.3819580078125,-1.790771484375,0.955810546875
2021-09-24 22:49:08.082327,0.03173828125,0.5625,0.8505859375,33.3819580078125,-1.790771484375,0.955810546875
2021-09-24 22:49:08.082486,0.03369140625,0.56298828125,0.8525390625,33.3819580078125,-1.790771484375,0.955810546875
2021-09-24 22:49:08.082647,0.033203125,0.564453125,0.8515625,33.3819580078125,-1.790771484375,0.955810546875
2021-09-24 22:49:08.082793,0.0322265625,0.5634765625,0.8515625,33.3819580078125,-1.790771484375,0.955810546875
2021-09-24 22:49:08.082916,0.03271484375,0.564453125,0.853515625,33.3819580078125,-1.790771484375,0.955810546875
2021-09-24 22:49:08.083035,0.03515625,0.56298828125,0.8544921875,33.3819580078125,-1.790771484375,0.955810546875
2021-09-24 22:49:08.083146,0.0322265625,0.56201171875,0.85400390625,33.3819580078125,-1.7962646484375,0.955810546875
2021-09-24 22:49:08.083260,0.03125,0.56201171875,0.8515625,33.3819580078125,-1.7962646484375,0.955810546875
2021-09-24 22:49:08.083372,0.03271484375,0.56396484375,0.8544921875,33.3819580078125,-1.7962646484375,0.955810546875
2021-09-24 22:49:08.083487,0.03076171875,0.56201171875,0.85302734375,33.3819580078125,-1.7962646484375,0.955810546875
2021-09-24 22:49:08.083604,0.0302734375,0.5615234375,0.85498046875,33.3819580078125,-1.790771484375,0.955810546875
2021-09-24 22:49:08.083717,0.03125,0.56201171875,0.85400390625,33.3819580078125,-1.790771484375,0.955810546875
2021-09-24 22:49:08.083830,0.03271484375,0.5625,0.8544921875,33.3819580078125,-1.790771484375,0.955810546875
2021-09-24 22:49:08.083942,0.03466796875,0.5625,0.85498046875,33.3819580078125,-1.790771484375,0.955810546875
2021-09-24 22:49:08.084052,0.03369140625,0.5634765625,0.85205078125,33.3819580078125,-1.7962646484375,0.955810546875
2021-09-24 22:49:08.084164,0.0341796875,0.5634765625,0.8544921875,33.3819580078125,-1.7962646484375,0.955810546875
2021-09-24 22:49:08.084271,0.03173828125,0.5634765625,0.8544921875,33.3819580078125,-1.7962646484375,0.955810546875
2021-09-24 22:49:08.084378,0.03173828125,0.5625,0.85595703125,33.3819580078125,-1.7962646484375,0.955810546875
2021-09-24 22:49:08.084503,0.0322265625,0.5625,0.85595703125,33.3819580078125,-1.7962646484375,0.955810546875
2021-09-24 22:49:08.084609,0.03173828125,0.56005859375,0.853515625,33.3819580078125,-1.7962646484375,0.955810546875
2021-09-24 22:49:08.084740,0.03173828125,0.5615234375,0.85302734375,33.3819580078125,-1.7962646484375,0.955810546875
2021-09-24 22:49:08.084873,0.033203125,0.56298828125,0.8525390625,33.3819580078125,-1.7962646484375,0.955810546875
2021-09-24 22:49:08.085014,0.03369140625,0.56494140625,0.849609375,33.3819580078125,-1.7962646484375,0.955810546875
2021-09-24 22:49:08.085123,0.03271484375,0.5625,0.853515625,33.3819580078125,-1.7962646484375,0.955810546875
2021-09-24 22:49:08.085239,0.033203125,0.5625,0.85546875,33.3819580078125,-1.7962646484375,0.955810546875
2021-09-24 22:49:08.085363,0.03271484375,0.56201171875,0.85498046875,33.3819580078125,-1.7962646484375,0.955810546875
2021-09-24 22:49:08.085476,0.03076171875,0.560546875,0.8564453125,33.3819580078125,-1.7962646484375,0.955810546875
2021-09-24 22:49:08.085583,0.0302734375,0.56103515625,0.85498046875,33.3819580078125,-1.7962646484375,0.955810546875
2021-09-24 22:49:08.085692,0.03125,0.56298828125,0.85498046875,33.3819580078125,-1.7962646484375,0.955810546875
2021-09-24 22:49:08.085799,0.03173828125,0.56201171875,0.85400390625,33.3819580078125,-1.7962646484375,0.955810546875
2021-09-24 22:49:08.085907,0.03125,0.56103515625,0.85302734375,33.37646484375,-1.7962646484375,0.955810546875
2021-09-24 22:49:08.086017,0.03173828125,0.5625,0.8515625,33.37646484375,-1.7962646484375,0.955810546875
2021-09-24 22:49:08.086137,0.03076171875,0.56298828125,0.8525390625,33.3819580078125,-1.790771484375,0.955810546875
2021-09-24 22:49:08.086273,0.03173828125,0.56298828125,0.85205078125,33.3819580078125,-1.790771484375,0.955810546875
2021-09-24 22:49:08.086401,0.03125,0.56201171875,0.8525390625,33.3819580078125,-1.790771484375,0.955810546875
2021-09-24 22:49:08.086509,0.03076171875,0.56201171875,0.85205078125,33.3819580078125,-1.790771484375,0.955810546875
2021-09-24 22:49:08.086611,0.0322265625,0.56201171875,0.8525390625,33.3819580078125,-1.790771484375,0.955810546875
2021-09-24 22:49:08.086721,0.03173828125,0.56396484375,0.8515625,33.3819580078125,-1.790771484375,0.955810546875
2021-09-24 22:49:08.086822,0.03271484375,0.56298828125,0.8515625,33.3819580078125,-1.790771484375,0.955810546875
2021-09-24 22:49:08.086923,0.0322265625,0.56396484375,0.85400390625,33.3819580078125,-1.790771484375,0.955810546875
2021-09-24 22:49:08.087023,0.0322265625,0.56201171875,0.8564453125,33.3819580078125,-1.790771484375,0.955810546875
2021-09-24 22:49:08.087122,0.0302734375,0.56298828125,0.85302734375,33.3819580078125,-1.790771484375,0.955810546875
2021-09-24 22:49:08.087221,0.03125,0.56298828125,0.85107421875,33.3819580078125,-1.790771484375,0.955810546875
2021-09-24 22:49:08.087321,0.03125,0.56298828125,0.8505859375,33.3819580078125,-1.790771484375,0.955810546875
2021-09-24 22:49:08.087440,0.0322265625,0.5634765625,0.85205078125,33.387451171875,-1.790771484375,0.955810546875
2021-09-24 22:49:08.087563,0.03271484375,0.56396484375,0.85546875,33.387451171875,-1.7852783203125,0.955810546875
2021-09-24 22:49:08.087715,0.03125,0.56298828125,0.85400390625,33.387451171875,-1.7852783203125,0.955810546875
2021-09-24 22:49:08.087875,0.0302734375,0.5625,0.8544921875,33.387451171875,-1.7852783203125,0.955810546875
2021-09-24 22:49:08.088011,0.033203125,0.56201171875,0.853515625,33.387451171875,-1.7852783203125,0.955810546875
2021-09-24 22:49:08.088151,0.0341796875,0.5625,0.85302734375,33.387451171875,-1.7852783203125,0.955810546875
2021-09-24 22:49:08.088252,0.03466796875,0.5625,0.853515625,33.387451171875,-1.790771484375,0.955810546875
2021-09-24 22:49:08.088366,0.033203125,0.5634765625,0.8544921875,33.387451171875,-1.790771484375,0.955810546875
2021-09-24 22:49:08.088462,0.03125,0.5634765625,0.85205078125,33.387451171875,-1.790771484375,0.955810546875
2021-09-24 22:49:08.088555,0.03466796875,0.5625,0.85595703125,33.387451171875,-1.790771484375,0.955810546875
2021-09-24 22:49:08.088675,0.0322265625,0.5625,0.8525390625,33.387451171875,-1.790771484375,0.955810546875
2021-09-24 22:49:08.088806,0.03369140625,0.56298828125,0.85302734375,33.387451171875,-1.790771484375,0.955810546875
2021-09-24 22:49:08.088931,0.03173828125,0.5634765625,0.85302734375,33.387451171875,-1.790771484375,0.955810546875
2021-09-24 22:49:08.089048,0.033203125,0.5615234375,0.8525390625,33.387451171875,-1.790771484375,0.955810546875
2021-09-24 22:49:08.089152,0.03369140625,0.5634765625,0.85205078125,33.387451171875,-1.790771484375,0.955810546875
2021-09-24 22:49:08.089273,0.03271484375,0.56689453125,0.8544921875,33.387451171875,-1.790771484375,0.955810546875
2021-09-24 22:49:08.089423,0.03173828125,0.56103515625,0.853515625,33.387451171875,-1.790771484375,0.955810546875
2021-09-24 22:49:08.089579,0.03173828125,0.56005859375,0.85693359375,33.387451171875,-1.790771484375,0.955810546875
2021-09-24 22:49:08.089731,0.0322265625,0.56396484375,0.85400390625,33.387451171875,-1.790771484375,0.955810546875
2021-09-24 22:49:08.089887,0.03076171875,0.56494140625,0.85302734375,33.387451171875,-1.790771484375,0.955810546875
2021-09-24 22:49:08.090042,0.03173828125,0.56103515625,0.85498046875,33.387451171875,-1.790771484375,0.955810546875
2021-09-24 22:49:08.090199,0.03173828125,0.5625,0.8544921875,33.387451171875,-1.790771484375,0.955810546875
2021-09-24 22:49:08.090357,0.03125,0.56201171875,0.8525390625,33.387451171875,-1.790771484375,0.955810546875
2021-09-24 22:49:08.090514,0.0322265625,0.5625,0.8515625,33.387451171875,-1.790771484375,0.955810546875
2021-09-24 22:49:08.090662,0.033203125,0.5625,0.85595703125,33.387451171875,-1.790771484375,0.955810546875
2021-09-24 22:49:08.090818,0.03271484375,0.564453125,0.85791015625,33.387451171875,-1.790771484375,0.955810546875
2021-09-24 22:49:08.090956,0.0322265625,0.5634765625,0.8525390625,33.387451171875,-1.790771484375,0.955810546875
2021-09-24 22:49:08.091107,0.03515625,0.56201171875,0.85400390625,33.387451171875,-1.790771484375,0.955810546875
2021-09-24 22:49:08.091268,0.03173828125,0.56298828125,0.8544921875,33.387451171875,-1.790771484375,0.955810546875
2021-09-24 22:49:08.091382,0.03076171875,0.56298828125,0.853515625,33.387451171875,-1.790771484375,0.955810546875
2021-09-24 22:49:08.091534,0.033203125,0.56298828125,0.85546875,33.387451171875,-1.790771484375,0.955810546875
2021-09-24 22:49:08.091688,0.033203125,0.5634765625,0.85400390625,33.387451171875,-1.790771484375,0.955810546875
2021-09-24 22:49:08.091830,0.0322265625,0.56494140625,0.853515625,33.387451171875,-1.790771484375,0.955810546875
2021-09-24 22:49:08.091983,0.0322265625,0.5615234375,0.8544921875,33.387451171875,-1.790771484375,0.955810546875
2021-09-24 22:49:08.092121,0.0322265625,0.56201171875,0.85205078125,33.387451171875,-1.790771484375,0.955810546875
2021-09-24 22:49:08.092221,0.03369140625,0.5615234375,0.8544921875,33.387451171875,-1.790771484375,0.955810546875
2021-09-24 22:49:08.092324,0.0322265625,0.5615234375,0.85546875,33.387451171875,-1.7962646484375,0.955810546875
2021-09-24 22:49:08.092425,0.03076171875,0.5625,0.85693359375,33.3819580078125,-1.7962646484375,0.955810546875
2021-09-24 22:49:08.092549,0.03271484375,0.5634765625,0.8525390625,33.3819580078125,-1.7962646484375,0.955810546875
2021-09-24 22:49:08.092681,0.03271484375,0.56201171875,0.8515625,33.3819580078125,-1.7962646484375,0.955810546875
2021-09-24 22:49:08.092805,0.0322265625,0.5634765625,0.85546875,33.3819580078125,-1.7962646484375,0.955810546875
2021-09-24 22:49:08.092929,0.03271484375,0.56298828125,0.857421875,33.3819580078125,-1.7962646484375,0.955810546875
2021-09-24 22:49:08.093052,0.0302734375,0.56103515625,0.85693359375,33.3819580078125,-1.7962646484375,0.955810546875
2021-09-24 22:49:08.093183,0.0322265625,0.56396484375,0.85546875,33.3819580078125,-1.7962646484375,0.955810546875
2021-09-24 22:49:08.093322,0.033203125,0.564453125,0.85595703125,33.3819580078125,-1.7962646484375,0.955810546875
2021-09-24 22:49:08.093464,0.0322265625,0.56396484375,0.85546875,33.3819580078125,-1.790771484375,0.955810546875
2021-09-24 22:49:08.093603,0.03125,0.56298828125,0.85498046875,33.3819580078125,-1.790771484375,0.955810546875
2021-09-24 22:49:08.093751,0.03173828125,0.56103515625,0.853515625,33.3819580078125,-1.790771484375,0.955810546875
2021-09-24 22:49:08.093884,0.0322265625,0.560546875,0.8525390625,33.37646484375,-1.790771484375,0.955810546875
2021-09-24 22:49:08.094012,0.03125,0.56201171875,0.85205078125,33.37646484375,-1.790771484375,0.955810546875
2021-09-24 22:49:08.094137,0.0322265625,0.5634765625,0.8515625,33.37646484375,-1.790771484375,0.955810546875
2021-09-24 22:49:08.094267,0.0322265625,0.56298828125,0.85302734375,33.3819580078125,-1.790771484375,0.955810546875
2021-09-24 22:49:08.094393,0.03173828125,0.56298828125,0.8525390625,33.3819580078125,-1.790771484375,0.955810546875
2021-09-24 22:49:08.094517,0.03466796875,0.56201171875,0.8505859375,33.3819580078125,-1.790771484375,0.955810546875
2021-09-24 22:49:08.094642,0.0341796875,0.5625,0.85693359375,33.3819580078125,-1.7962646484375,0.955810546875
2021-09-24 22:49:08.094768,0.03125,0.564453125,0.8564453125,33.3819580078125,-1.7962646484375,0.955810546875
2021-09-24 22:49:08.094893,0.03125,0.56494140625,0.85595703125,33.3819580078125,-1.7962646484375,0.955810546875
2021-09-24 22:49:08.095017,0.03125,0.56201171875,0.8564453125,33.3819580078125,-1.7962646484375,0.955810546875
2021-09-24 22:49:08.095142,0.03076171875,0.56298828125,0.85205078125,33.3819580078125,-1.7962646484375,0.955810546875
2021-09-24 22:49:08.095272,0.0322265625,0.5625,0.8544921875,33.3819580078125,-1.790771484375,0.955810546875
2021-09-24 22:49:08.095414,0.033203125,0.5625,0.85693359375,33.3819580078125,-1.790771484375,0.955810546875
2021-09-24 22:49:08.095548,0.03466796875,0.5634765625,0.85498046875,33.3819580078125,-1.7962646484375,0.955810546875
2021-09-24 22:49:08.095684,0.03271484375,0.56396484375,0.85791015625,33.3819580078125,-1.7962646484375,0.955810546875
2021-09-24 22:49:08.095821,0.03125,0.5634765625,0.85302734375,33.37646484375,-1.7962646484375,0.955810546875
2021-09-24 22:49:08.095959,0.0322265625,0.5615234375,0.8525390625,33.3819580078125,-1.7962646484375,0.955810546875
2021-09-24 22:49:08.096091,0.03369140625,0.560546875,0.85302734375,33.3819580078125,-1.7962646484375,0.955810546875
2021-09-24 22:49:08.096239,0.03271484375,0.56201171875,0.85302734375,33.37646484375,-1.7962646484375,0.955810546875
2021-09-24 22:49:08.096375,0.0322265625,0.56201171875,0.853515625,33.37646484375,-1.7962646484375,0.955810546875
2021-09-24 22:49:08.096513,0.03271484375,0.56298828125,0.85205078125,33.37646484375,-1.7962646484375,0.955810546875
2021-09-24 22:49:08.096662,0.03369140625,0.5625,0.853515625,33.37646484375,-1.7962646484375,0.955810546875
2021-09-24 22:49:08.096809,0.03369140625,0.56201171875,0.85498046875,33.37646484375,-1.7962646484375,0.955810546875
2021-09-24 22:49:08.096959,0.03271484375,0.56201171875,0.8544921875,33.37646484375,-1.7962646484375,0.955810546875
2021-09-24 22:49:08.097113,0.0341796875,0.56201171875,0.85498046875,33.37646484375,-1.7962646484375,0.955810546875
2021-09-24 22:49:08.097269,0.0322265625,0.56298828125,0.8525390625,33.37646484375,-1.7962646484375,0.955810546875
2021-09-24 22:49:08.097419,0.0322265625,0.56201171875,0.85546875,33.37646484375,-1.8017578125,0.955810546875
2021-09-24 22:49:08.097571,0.03369140625,0.56103515625,0.8544921875,33.37646484375,-1.8017578125,0.955810546875
2021-09-24 22:49:08.097740,0.03369140625,0.56494140625,0.853515625,33.37646484375,-1.8017578125,0.955810546875
2021-09-24 22:49:08.097885,0.033203125,0.564453125,0.85400390625,33.37646484375,-1.8017578125,0.955810546875
2021-09-24 22:49:08.098022,0.03125,0.564453125,0.8525390625,33.37646484375,-1.8017578125,0.955810546875
2021-09-24 22:49:08.098170,0.0302734375,0.560546875,0.8525390625,33.3819580078125,-1.8017578125,0.955810546875
2021-09-24 22:49:08.098307,0.03076171875,0.5634765625,0.8515625,33.37646484375,-1.8017578125,0.955810546875
2021-09-24 22:49:08.098459,0.03125,0.5634765625,0.853515625,33.3819580078125,-1.7962646484375,0.955810546875
2021-09-24 22:49:08.098609,0.03076171875,0.56201171875,0.85302734375,33.3819580078125,-1.7962646484375,0.955810546875
2021-09-24 22:49:08.098777,0.03173828125,0.5625,0.85400390625,33.3819580078125,-1.7962646484375,0.955810546875
2021-09-24 22:49:08.098915,0.0322265625,0.56298828125,0.85400390625,33.3819580078125,-1.7962646484375,0.955810546875
2021-09-24 22:49:08.099073,0.0302734375,0.5625,0.85009765625,33.3819580078125,-1.7962646484375,0.955810546875
2021-09-24 22:49:08.099240,0.033203125,0.56298828125,0.85302734375,33.3819580078125,-1.7962646484375,0.955810546875
2021-09-24 22:49:08.099399,0.0322265625,0.5634765625,0.8515625,33.3819580078125,-1.7962646484375,0.955810546875
2021-09-24 22:49:08.099559,0.033203125,0.56298828125,0.8544921875,33.3819580078125,-1.7962646484375,0.955810546875
2021-09-24 22:49:08.099705,0.0322265625,0.564453125,0.849609375,33.3819580078125,-1.7962646484375,0.955810546875
2021-09-24 22:49:08.099863,0.03564453125,0.56103515625,0.85546875,33.3819580078125,-1.7962646484375,0.955810546875
2021-09-24 22:49:08.099995,0.03173828125,0.56201171875,0.85498046875,33.3819580078125,-1.7962646484375,0.955810546875
2021-09-24 22:49:08.100124,0.02978515625,0.560546875,0.85302734375,33.3819580078125,-1.8017578125,0.955810546875
2021-09-24 22:49:08.100236,0.02978515625,0.56201171875,0.8544921875,33.3819580078125,-1.8017578125,0.955810546875
2021-09-24 22:49:08.100340,0.029296875,0.560546875,0.85546875,33.3819580078125,-1.8072509765625,0.955810546875
2021-09-24 22:49:08.100441,0.03369140625,0.56591796875,0.8515625,33.3819580078125,-1.8017578125,0.955810546875
2021-09-24 22:49:08.100542,0.0341796875,0.5673828125,0.85107421875,33.37646484375,-1.8017578125,0.955810546875
2021-09-24 22:49:08.100643,0.0341796875,0.56689453125,0.85595703125,33.37646484375,-1.790771484375,0.955810546875
2021-09-24 22:49:08.100755,0.0341796875,0.56201171875,0.85546875,33.37646484375,-1.790771484375,0.955810546875
2021-09-24 22:49:08.100865,0.033203125,0.56103515625,0.853515625,33.3819580078125,-1.790771484375,0.955810546875
2021-09-24 22:49:08.101004,0.03125,0.5615234375,0.85693359375,33.3819580078125,-1.7962646484375,0.955810546875
2021-09-24 22:49:08.101142,0.033203125,0.5615234375,0.85546875,33.3819580078125,-1.7962646484375,0.955810546875
2021-09-24 22:49:08.101391,0.03125,0.56298828125,0.85546875,33.37646484375,-1.8017578125,0.955810546875
2021-09-24 22:49:08.101541,0.0302734375,0.56396484375,0.853515625,33.37646484375,-1.8017578125,0.955810546875
2021-09-24 22:49:08.101682,0.03173828125,0.56201171875,0.85400390625,33.37646484375,-1.8017578125,0.955810546875
2021-09-24 22:49:08.101832,0.029296875,0.5615234375,0.85400390625,33.37646484375,-1.8017578125,0.955810546875
2021-09-24 22:49:08.101971,0.0322265625,0.5615234375,0.85400390625,33.37646484375,-1.8017578125,0.955810546875
2021-09-24 22:49:08.102102,0.0341796875,0.5634765625,0.85400390625,33.37646484375,-1.7962646484375,0.955810546875
2021-09-24 22:49:08.102216,0.03466796875,0.5634765625,0.85302734375,33.37646484375,-1.790771484375,0.955810546875
2021-09-24 22:49:08.102326,0.033203125,0.56396484375,0.85302734375,33.3709716796875,-1.790771484375,0.955810546875
2021-09-24 22:49:08.102445,0.0322265625,0.56201171875,0.85498046875,33.37646484375,-1.7852783203125,0.955810546875
2021-09-24 22:49:08.102549,0.03369140625,0.56103515625,0.85205078125,33.3709716796875,-1.790771484375,0.955810546875
2021-09-24 22:49:08.102650,0.03125,0.5634765625,0.8515625,33.3709716796875,-1.790771484375,0.955810546875
2021-09-24 22:49:08.102752,0.02880859375,0.56396484375,0.85302734375,33.37646484375,-1.7962646484375,0.955810546875
2021-09-24 22:49:08.102853,0.02978515625,0.56201171875,0.85498046875,33.37646484375,-1.7962646484375,0.955810546875
2021-09-24 22:49:08.102954,0.029296875,0.5625,0.85693359375,33.37646484375,-1.7962646484375,0.955810546875
2021-09-24 22:49:08.103054,0.03125,0.5634765625,0.85693359375,33.37646484375,-1.7962646484375,0.955810546875
2021-09-24 22:49:08.103160,0.0322265625,0.5615234375,0.8515625,33.3709716796875,-1.7962646484375,0.955810546875
2021-09-24 22:49:08.103290,0.03369140625,0.5625,0.8544921875,33.37646484375,-1.790771484375,0.955810546875
2021-09-24 22:49:08.103417,0.03466796875,0.56494140625,0.8544921875,33.3709716796875,-1.790771484375,0.955810546875
2021-09-24 22:49:08.103522,0.03369140625,0.564453125,0.85302734375,33.37646484375,-1.7852783203125,0.955810546875
2021-09-24 22:49:08.103630,0.03369140625,0.56396484375,0.8515625,33.37646484375,-1.7852783203125,0.955810546875
2021-09-24 22:49:08.103731,0.0341796875,0.5615234375,0.8525390625,33.37646484375,-1.790771484375,0.955810546875
2021-09-24 22:49:08.103854,0.03125,0.5615234375,0.85205078125,33.37646484375,-1.790771484375,0.955810546875
2021-09-24 22:49:08.103950,0.02978515625,0.5615234375,0.853515625,33.37646484375,-1.7962646484375,0.955810546875
2021-09-24 22:49:08.104044,0.0322265625,0.5625,0.85546875,33.37646484375,-1.7962646484375,0.955810546875
2021-09-24 22:49:08.104138,0.03271484375,0.56005859375,0.85400390625,33.37646484375,-1.7962646484375,0.955810546875
2021-09-24 22:49:08.104232,0.03076171875,0.56103515625,0.8525390625,33.37646484375,-1.7962646484375,0.955810546875
2021-09-24 22:49:08.104327,0.03076171875,0.56201171875,0.8525390625,33.37646484375,-1.7962646484375,0.955810546875
2021-09-24 22:49:08.104421,0.03125,0.5625,0.8544921875,33.37646484375,-1.790771484375,0.955810546875
2021-09-24 22:49:08.104557,0.0341796875,0.56103515625,0.85400390625,33.37646484375,-1.790771484375,0.955810546875
2021-09-24 22:49:08.104689,0.033203125,0.56201171875,0.853515625,33.37646484375,-1.790771484375,0.955810546875
2021-09-24 22:49:08.104794,0.03515625,0.5634765625,0.853515625,33.3709716796875,-1.7852783203125,0.955810546875
2021-09-24 22:49:08.104927,0.03173828125,0.56396484375,0.8564453125,33.37646484375,-1.790771484375,0.955810546875
2021-09-24 22:49:08.105036,0.03173828125,0.560546875,0.8544921875,33.37646484375,-1.790771484375,0.955810546875
2021-09-24 22:49:08.105131,0.03125,0.560546875,0.85302734375,33.3709716796875,-1.790771484375,0.955810546875
2021-09-24 22:49:08.105233,0.0302734375,0.56201171875,0.85107421875,33.3709716796875,-1.7962646484375,0.955810546875
2021-09-24 22:49:08.105352,0.03076171875,0.5634765625,0.85205078125,33.3709716796875,-1.7962646484375,0.955810546875
2021-09-24 22:49:08.105489,0.0302734375,0.56494140625,0.85400390625,33.3709716796875,-1.7962646484375,0.955810546875
2021-09-24 22:49:08.105635,0.0322265625,0.5654296875,0.85400390625,33.3709716796875,-1.7962646484375,0.955810546875
2021-09-24 22:49:08.105790,0.03076171875,0.5654296875,0.853515625,33.3709716796875,-1.790771484375,0.955810546875
2021-09-24 22:49:08.105945,0.03173828125,0.5634765625,0.8525390625,33.37646484375,-1.7852783203125,0.955810546875
2021-09-24 22:49:08.106097,0.03564453125,0.5625,0.85400390625,33.37646484375,-1.7852783203125,0.955810546875
2021-09-24 22:49:08.106254,0.03271484375,0.5615234375,0.849609375,33.37646484375,-1.790771484375,0.955810546875
2021-09-24 22:49:08.106411,0.0341796875,0.564453125,0.8525390625,33.37646484375,-1.790771484375,0.955810546875
2021-09-24 22:49:08.106566,0.03271484375,0.564453125,0.8544921875,33.37646484375,-1.790771484375,0.955810546875
2021-09-24 22:49:08.106705,0.03125,0.56396484375,0.85498046875,33.3819580078125,-1.7962646484375,0.955810546875
2021-09-24 22:49:08.106809,0.03173828125,0.5634765625,0.85107421875,33.3819580078125,-1.7962646484375,0.955810546875
2021-09-24 22:49:08.106905,0.03125,0.56298828125,0.8525390625,33.3819580078125,-1.7962646484375,0.955810546875
2021-09-24 22:49:08.106999,0.029296875,0.5625,0.85205078125,33.3819580078125,-1.7962646484375,0.955810546875
2021-09-24 22:49:08.107094,0.0322265625,0.56201171875,0.8515625,33.3819580078125,-1.790771484375,0.955810546875
2021-09-24 22:49:08.107216,0.03369140625,0.5615234375,0.85498046875,33.3819580078125,-1.790771484375,0.955810546875
2021-09-24 22:49:08.107325,0.0341796875,0.560546875,0.85400390625,33.3819580078125,-1.7852783203125,0.955810546875
2021-09-24 22:49:08.107420,0.0341796875,0.5615234375,0.85498046875,33.3819580078125,-1.790771484375,0.955810546875
2021-09-24 22:49:08.107514,0.03369140625,0.5625,0.8525390625,33.3819580078125,-1.790771484375,0.955810546875
2021-09-24 22:49:08.107608,0.0302734375,0.56103515625,0.85498046875,33.3819580078125,-1.7962646484375,0.955810546875
2021-09-24 22:49:08.107703,0.029296875,0.56103515625,0.85400390625,33.3819580078125,-1.7962646484375,0.955810546875
2021-09-24 22:49:08.107804,0.029296875,0.56201171875,0.8525390625,33.37646484375,-1.7962646484375,0.955810546875
2021-09-24 22:49:08.107898,0.03173828125,0.56396484375,0.8515625,33.37646484375,-1.7962646484375,0.955810546875
2021-09-24 22:49:08.107991,0.03271484375,0.5625,0.8544921875,33.3819580078125,-1.790771484375,0.955810546875
2021-09-24 22:49:08.108084,0.03466796875,0.5625,0.85400390625,33.3819580078125,-1.790771484375,0.955810546875
2021-09-24 22:49:08.108175,0.033203125,0.56298828125,0.8583984375,33.3819580078125,-1.790771484375,0.955810546875
2021-09-24 22:49:08.108267,0.03369140625,0.56298828125,0.85595703125,33.37646484375,-1.7852783203125,0.955810546875
2021-09-24 22:49:08.108359,0.03466796875,0.56298828125,0.853515625,33.37646484375,-1.790771484375,0.955810546875
2021-09-24 22:49:08.108451,0.0322265625,0.56298828125,0.85546875,33.37646484375,-1.790771484375,0.955810546875
2021-09-24 22:49:08.108544,0.029296875,0.56494140625,0.85546875,33.37646484375,-1.7962646484375,0.955810546875
2021-09-24 22:49:08.108636,0.03125,0.56298828125,0.853515625,33.37646484375,-1.7962646484375,0.955810546875
2021-09-24 22:49:08.108730,0.03125,0.5634765625,0.85400390625,33.37646484375,-1.7962646484375,0.955810546875
2021-09-24 22:49:08.108822,0.03076171875,0.564453125,0.853515625,33.37646484375,-1.7962646484375,0.955810546875
2021-09-24 22:49:08.108914,0.03369140625,0.56298828125,0.85205078125,33.3819580078125,-1.7962646484375,0.955810546875
2021-09-24 22:49:08.109006,0.0341796875,0.5625,0.85302734375,33.3819580078125,-1.7962646484375,0.955810546875
2021-09-24 22:49:08.109099,0.033203125,0.5615234375,0.8525390625,33.3819580078125,-1.7962646484375,0.955810546875
2021-09-24 22:49:08.109191,0.03369140625,0.5625,0.85595703125,33.3819580078125,-1.7962646484375,0.955810546875
2021-09-24 22:49:08.109295,0.03369140625,0.56396484375,0.85595703125,33.3819580078125,-1.7962646484375,0.955810546875
2021-09-24 22:49:08.109388,0.0322265625,0.56396484375,0.85302734375,33.3819580078125,-1.7962646484375,0.955810546875
2021-09-24 22:49:08.109482,0.0302734375,0.5634765625,0.8544921875,33.3819580078125,-1.7962646484375,0.955810546875
2021-09-24 22:49:08.109573,0.03173828125,0.56103515625,0.85498046875,33.3819580078125,-1.7962646484375,0.955810546875
2021-09-24 22:49:08.109666,0.03125,0.5625,0.85498046875,33.3819580078125,-1.7962646484375,0.955810546875
2021-09-24 22:49:08.109759,0.03369140625,0.5625,0.8544921875,33.3819580078125,-1.7962646484375,0.955810546875
2021-09-24 22:49:08.109852,0.0322265625,0.56201171875,0.8544921875,33.3819580078125,-1.7962646484375,0.955810546875
2021-09-24 22:49:08.109944,0.03173828125,0.5615234375,0.8525390625,33.37646484375,-1.7962646484375,0.955810546875
2021-09-24 22:49:08.110036,0.03173828125,0.5615234375,0.8525390625,33.37646484375,-1.7962646484375,0.955810546875
2021-09-24 22:49:08.110129,0.03173828125,0.56201171875,0.853515625,33.37646484375,-1.790771484375,0.955810546875
2021-09-24 22:49:08.110222,0.03271484375,0.56103515625,0.85498046875,33.37646484375,-1.790771484375,0.955810546875
2021-09-24 22:49:08.110315,0.03271484375,0.56201171875,0.8564453125,33.37646484375,-1.790771484375,0.955810546875
2021-09-24 22:49:08.110407,0.02978515625,0.56201171875,0.8525390625,33.37646484375,-1.790771484375,0.955810546875
2021-09-24 22:49:08.110499,0.03173828125,0.5615234375,0.85595703125,33.37646484375,-1.790771484375,0.955810546875
2021-09-24 22:49:08.110591,0.03125,0.56103515625,0.85595703125,33.37646484375,-1.790771484375,0.955810546875
2021-09-24 22:49:08.110684,0.03173828125,0.560546875,0.85302734375,33.37646484375,-1.790771484375,0.955810546875
2021-09-24 22:49:08.110776,0.0322265625,0.5634765625,0.8564453125,33.3709716796875,-1.790771484375,0.955810546875
2021-09-24 22:49:08.110868,0.03125,0.56396484375,0.85400390625,33.3709716796875,-1.790771484375,0.955810546875
2021-09-24 22:49:08.110959,0.0322265625,0.5654296875,0.853515625,33.3709716796875,-1.790771484375,0.955810546875
2021-09-24 22:49:08.111051,0.03271484375,0.56298828125,0.85498046875,33.37646484375,-1.790771484375,0.955810546875
2021-09-24 22:49:08.111162,0.03173828125,0.56103515625,0.85400390625,33.37646484375,-1.790771484375,0.955810546875
2021-09-24 22:49:08.111288,0.03173828125,0.56396484375,0.85498046875,33.37646484375,-1.790771484375,0.955810546875
2021-09-24 22:49:08.111384,0.03271484375,0.5634765625,0.85693359375,33.37646484375,-1.790771484375,0.955810546875
2021-09-24 22:49:08.111477,0.03076171875,0.56201171875,0.85498046875,33.37646484375,-1.790771484375,0.955810546875
2021-09-24 22:49:08.111570,0.0322265625,0.56201171875,0.853515625,33.3709716796875,-1.790771484375,0.955810546875
2021-09-24 22:49:08.111663,0.0322265625,0.560546875,0.85107421875,33.3709716796875,-1.790771484375,0.955810546875
2021-09-24 22:49:08.111756,0.029296875,0.5625,0.8525390625,33.3709716796875,-1.790771484375,0.955810546875
2021-09-24 22:49:08.111848,0.0322265625,0.5625,0.84912109375,33.3709716796875,-1.790771484375,0.955810546875
2021-09-24 22:49:08.111940,0.03369140625,0.5654296875,0.8505859375,33.37646484375,-1.790771484375,0.955810546875
2021-09-24 22:49:08.112051,0.03369140625,0.56494140625,0.85107421875,33.37646484375,-1.790771484375,0.955810546875
2021-09-24 22:49:08.112206,0.03369140625,0.56201171875,0.85302734375,33.37646484375,-1.7852783203125,0.955810546875
2021-09-24 22:49:08.112340,0.03076171875,0.56103515625,0.8544921875,33.37646484375,-1.7852783203125,0.955810546875
2021-09-24 22:49:08.112476,0.0302734375,0.56298828125,0.85595703125,33.37646484375,-1.7852783203125,0.955810546875
2021-09-24 22:49:08.112610,0.03173828125,0.5634765625,0.85546875,33.37646484375,-1.7852783203125,0.955810546875
2021-09-24 22:49:08.112743,0.03125,0.564453125,0.853515625,33.37646484375,-1.7852783203125,0.955810546875
2021-09-24 22:49:08.112876,0.0283203125,0.56201171875,0.85400390625,33.37646484375,-1.7852783203125,0.955810546875
2021-09-24 22:49:08.113014,0.03076171875,0.56201171875,0.85693359375,33.37646484375,-1.7852783203125,0.955810546875
2021-09-24 22:49:08.113156,0.0322265625,0.5615234375,0.853515625,33.37646484375,-1.7852783203125,0.955810546875
2021-09-24 22:49:08.113292,0.03173828125,0.56201171875,0.85400390625,33.3709716796875,-1.7852783203125,0.955810546875
2021-09-24 22:49:08.113406,0.03125,0.5625,0.8544921875,33.3709716796875,-1.7852783203125,0.955810546875
2021-09-24 22:49:08.113505,0.0341796875,0.56201171875,0.8544921875,33.3709716796875,-1.7852783203125,0.955810546875
2021-09-24 22:49:08.113597,0.033203125,0.5634765625,0.8505859375,33.3709716796875,-1.7852783203125,0.955810546875
2021-09-24 22:49:08.113689,0.033203125,0.56396484375,0.8525390625,33.37646484375,-1.7852783203125,0.955810546875
2021-09-24 22:49:08.113779,0.03173828125,0.56298828125,0.85400390625,33.37646484375,-1.7852783203125,0.955810546875
2021-09-24 22:49:08.113871,0.03173828125,0.5625,0.8515625,33.37646484375,-1.7852783203125,0.955810546875
2021-09-24 22:49:08.113961,0.03173828125,0.5634765625,0.8544921875,33.37646484375,-1.7852783203125,0.955810546875
2021-09-24 22:49:08.114050,0.0322265625,0.56396484375,0.85302734375,33.37646484375,-1.7852783203125,0.955810546875
2021-09-24 22:49:08.114139,0.03369140625,0.5634765625,0.85498046875,33.37646484375,-1.7852783203125,0.955810546875
2021-09-24 22:49:08.114228,0.0322265625,0.56298828125,0.85302734375,33.37646484375,-1.7852783203125,0.955810546875
2021-09-24 22:49:08.114317,0.0322265625,0.56201171875,0.8525390625,33.37646484375,-1.7852783203125,0.955810546875
2021-09-24 22:49:08.114409,0.0322265625,0.56298828125,0.85400390625,33.37646484375,-1.7852783203125,0.955810546875
2021-09-24 22:49:08.114500,0.03076171875,0.5625,0.8544921875,33.37646484375,-1.7852783203125,0.955810546875
2021-09-24 22:49:08.114592,0.03076171875,0.56396484375,0.8544921875,33.37646484375,-1.7852783203125,0.955810546875
2021-09-24 22:49:08.114683,0.0322265625,0.56396484375,0.85302734375,33.37646484375,-1.7852783203125,0.955810546875
2021-09-24 22:49:08.114774,0.03173828125,0.5634765625,0.85302734375,33.37646484375,-1.7852783203125,0.955810546875
2021-09-24 22:49:08.114873,0.03173828125,0.564453125,0.85400390625,33.3819580078125,-1.7852783203125,0.955810546875
2021-09-24 22:49:08.114966,0.033203125,0.5625,0.85546875,33.3819580078125,-1.7852783203125,0.955810546875
2021-09-24 22:49:08.115059,0.03271484375,0.5625,0.8505859375,33.3819580078125,-1.7852783203125,0.955810546875
2021-09-24 22:49:08.115161,0.03369140625,0.56005859375,0.853515625,33.3819580078125,-1.7852783203125,0.955810546875
2021-09-24 22:49:08.115288,0.0322265625,0.56298828125,0.85302734375,33.3819580078125,-1.790771484375,0.955810546875
2021-09-24 22:49:08.115384,0.03466796875,0.5625,0.853515625,33.3819580078125,-1.790771484375,0.955810546875
2021-09-24 22:49:08.115474,0.0322265625,0.56103515625,0.85302734375,33.3819580078125,-1.790771484375,0.955810546875
2021-09-24 22:49:08.115564,0.03125,0.5615234375,0.85302734375,33.3819580078125,-1.790771484375,0.955810546875
2021-09-24 22:49:08.115654,0.03076171875,0.5615234375,0.8564453125,33.3819580078125,-1.790771484375,0.955810546875
2021-09-24 22:49:08.115743,0.03076171875,0.56005859375,0.8544921875,33.37646484375,-1.790771484375,0.955810546875
2021-09-24 22:49:08.115832,0.0341796875,0.56298828125,0.85498046875,33.37646484375,-1.790771484375,0.955810546875
2021-09-24 22:49:08.115921,0.03271484375,0.5625,0.8525390625,33.37646484375,-1.790771484375,0.955810546875
2021-09-24 22:49:08.116010,0.0341796875,0.56201171875,0.85205078125,33.37646484375,-1.790771484375,0.955810546875
2021-09-24 22:49:08.116099,0.03173828125,0.56298828125,0.85302734375,33.37646484375,-1.790771484375,0.955810546875
2021-09-24 22:49:08.116188,0.03271484375,0.56201171875,0.85302734375,33.37646484375,-1.790771484375,0.955810546875
2021-09-24 22:49:08.116276,0.033203125,0.5615234375,0.8515625,33.37646484375,-1.790771484375,0.955810546875
2021-09-24 22:49:08.116366,0.0322265625,0.56298828125,0.85498046875,33.37646484375,-1.790771484375,0.955810546875
2021-09-24 22:49:08.116456,0.03125,0.56201171875,0.85205078125,33.37646484375,-1.790771484375,0.955810546875
2021-09-24 22:49:08.116545,0.03076171875,0.56298828125,0.8544921875,33.37646484375,-1.790771484375,0.955810546875
2021-09-24 22:49:08.116634,0.03076171875,0.56494140625,0.8505859375,33.37646484375,-1.790771484375,0.955810546875
2021-09-24 22:49:08.116723,0.03125,0.5625,0.8505859375,33.3819580078125,-1.790771484375,0.955810546875
2021-09-24 22:49:08.116811,0.03076171875,0.56298828125,0.85302734375,33.3819580078125,-1.790771484375,0.955810546875
2021-09-24 22:49:08.116899,0.0322265625,0.5615234375,0.8505859375,33.3819580078125,-1.790771484375,0.955810546875
2021-09-24 22:49:08.116988,0.0322265625,0.5625,0.85009765625,33.3819580078125,-1.790771484375,0.955810546875
2021-09-24 22:49:08.117076,0.03173828125,0.56396484375,0.85546875,33.3819580078125,-1.790771484375,0.955810546875
2021-09-24 22:49:08.117164,0.0341796875,0.56494140625,0.8525390625,33.3819580078125,-1.790771484375,0.955810546875
2021-09-24 22:49:08.117265,0.0341796875,0.5625,0.85400390625,33.3819580078125,-1.790771484375,0.955810546875
2021-09-24 22:49:08.117357,0.0341796875,0.56201171875,0.85546875,33.3819580078125,-1.790771484375,0.955810546875
2021-09-24 22:49:08.117445,0.0341796875,0.5634765625,0.85205078125,33.3819580078125,-1.790771484375,0.955810546875
2021-09-24 22:49:08.117534,0.03125,0.5634765625,0.8525390625,33.3819580078125,-1.7962646484375,0.955810546875
2021-09-24 22:49:08.117623,0.03173828125,0.5634765625,0.85400390625,33.387451171875,-1.7962646484375,0.955810546875
2021-09-24 22:49:08.117712,0.03076171875,0.564453125,0.85498046875,33.387451171875,-1.7962646484375,0.955810546875
2021-09-24 22:49:08.117801,0.0322265625,0.5625,0.85595703125,33.387451171875,-1.790771484375,0.955810546875
2021-09-24 22:49:08.117890,0.03173828125,0.56103515625,0.85400390625,33.387451171875,-1.790771484375,0.955810546875
2021-09-24 22:49:08.117978,0.03125,0.56298828125,0.85400390625,33.3819580078125,-1.790771484375,0.955810546875
2021-09-24 22:49:08.118066,0.0322265625,0.5615234375,0.85546875,33.3819580078125,-1.790771484375,0.955810546875
2021-09-24 22:49:08.118155,0.03271484375,0.5634765625,0.85400390625,33.3819580078125,-1.790771484375,0.955810546875
2021-09-24 22:49:08.118249,0.0322265625,0.5625,0.85498046875,33.3819580078125,-1.790771484375,0.955810546875
2021-09-24 22:49:08.118339,0.033203125,0.5625,0.85302734375,33.3819580078125,-1.790771484375,0.955810546875
2021-09-24 22:49:08.118427,0.03271484375,0.564453125,0.8525390625,33.3819580078125,-1.7962646484375,0.955810546875
2021-09-24 22:49:08.118515,0.03125,0.56298828125,0.85791015625,33.3819580078125,-1.7962646484375,0.955810546875
2021-09-24 22:49:08.118604,0.03125,0.56201171875,0.8544921875,33.3819580078125,-1.7962646484375,0.955810546875
2021-09-24 22:49:08.118692,0.03271484375,0.5625,0.85546875,33.3819580078125,-1.790771484375,0.955810546875
2021-09-24 22:49:08.118781,0.0322265625,0.56103515625,0.8564453125,33.3819580078125,-1.7962646484375,0.955810546875
2021-09-24 22:49:08.118870,0.03125,0.56201171875,0.85302734375,33.3819580078125,-1.7962646484375,0.955810546875
2021-09-24 22:49:08.118958,0.03271484375,0.56298828125,0.85498046875,33.3819580078125,-1.790771484375,0.955810546875
2021-09-24 22:49:08.119047,0.03173828125,0.56298828125,0.85498046875,33.3819580078125,-1.7962646484375,0.955810546875
2021-09-24 22:49:08.119158,0.0302734375,0.5634765625,0.85498046875,33.3819580078125,-1.790771484375,0.955810546875
2021-09-24 22:49:08.119283,0.0322265625,0.5634765625,0.8515625,33.3819580078125,-1.790771484375,0.955810546875
2021-09-24 22:49:08.119392,0.03173828125,0.56494140625,0.8525390625,33.3819580078125,-1.790771484375,0.955810546875
2021-09-24 22:49:08.119485,0.0341796875,0.5625,0.8505859375,33.3819580078125,-1.790771484375,0.955810546875
2021-09-24 22:49:08.119574,0.0322265625,0.5625,0.85498046875,33.3819580078125,-1.7962646484375,0.955810546875
2021-09-24 22:49:08.119662,0.03271484375,0.5634765625,0.85498046875,33.3819580078125,-1.7962646484375,0.955810546875
2021-09-24 22:49:08.119750,0.03173828125,0.56396484375,0.853515625,33.3819580078125,-1.7962646484375,0.955810546875
2021-09-24 22:49:08.119838,0.03173828125,0.56396484375,0.853515625,33.3819580078125,-1.7962646484375,0.955810546875
2021-09-24 22:49:08.119925,0.0322265625,0.5625,0.849609375,33.387451171875,-1.7962646484375,0.955810546875
2021-09-24 22:49:08.120011,0.03271484375,0.5634765625,0.8544921875,33.387451171875,-1.7962646484375,0.955810546875
2021-09-24 22:49:08.120098,0.03125,0.5625,0.85205078125,33.387451171875,-1.7962646484375,0.955810546875
2021-09-24 22:49:08.120185,0.03076171875,0.56298828125,0.8525390625,33.387451171875,-1.7962646484375,0.955810546875
2021-09-24 22:49:08.120272,0.0322265625,0.5625,0.8525390625,33.387451171875,-1.790771484375,0.955810546875
2021-09-24 22:49:08.120359,0.033203125,0.56396484375,0.85302734375,33.387451171875,-1.790771484375,0.955810546875
2021-09-24 22:49:08.120446,0.0302734375,0.56201171875,0.85302734375,33.387451171875,-1.7962646484375,0.955810546875
2021-09-24 22:49:08.120533,0.0322265625,0.560546875,0.853515625,33.387451171875,-1.790771484375,0.955810546875
2021-09-24 22:49:08.120620,0.03271484375,0.56201171875,0.85400390625,33.387451171875,-1.790771484375,0.955810546875
2021-09-24 22:49:08.120708,0.03076171875,0.5634765625,0.85400390625,33.387451171875,-1.790771484375,0.955810546875
2021-09-24 22:49:08.120794,0.0322265625,0.5634765625,0.85498046875,33.387451171875,-1.790771484375,0.955810546875
2021-09-24 22:49:08.120891,0.03271484375,0.5625,0.8564453125,33.387451171875,-1.790771484375,0.955810546875
2021-09-24 22:49:08.120979,0.0302734375,0.56298828125,0.85693359375,33.387451171875,-1.790771484375,0.955810546875
2021-09-24 22:49:08.121066,0.0302734375,0.56201171875,0.8564453125,33.387451171875,-1.790771484375,0.955810546875
2021-09-24 22:49:08.121152,0.03076171875,0.56201171875,0.85498046875,33.3819580078125,-1.790771484375,0.955810546875
2021-09-24 22:49:08.121251,0.03125,0.56201171875,0.85498046875,33.3819580078125,-1.790771484375,0.955810546875
2021-09-24 22:49:08.121341,0.03125,0.56201171875,0.85595703125,33.3819580078125,-1.790771484375,0.955810546875
2021-09-24 22:49:08.121459,0.03173828125,0.56201171875,0.85693359375,33.3819580078125,-1.790771484375,0.955810546875
2021-09-24 22:49:08.121561,0.0341796875,0.5615234375,0.85400390625,33.3819580078125,-1.790771484375,0.955810546875
2021-09-24 22:49:08.121651,0.0341796875,0.56298828125,0.8525390625,33.3819580078125,-1.790771484375,0.955810546875
2021-09-24 22:49:08.121736,0.03271484375,0.5625,0.8505859375,33.3819580078125,-1.790771484375,0.955810546875
2021-09-24 22:49:08.121822,0.03271484375,0.560546875,0.85546875,33.3819580078125,-1.790771484375,0.955810546875
2021-09-24 22:49:08.121909,0.03173828125,0.5615234375,0.853515625,33.3819580078125,-1.790771484375,0.955810546875
2021-09-24 22:49:08.121998,0.03271484375,0.56201171875,0.85791015625,33.3819580078125,-1.790771484375,0.955810546875
2021-09-24 22:49:08.122091,0.03173828125,0.5625,0.85400390625,33.37646484375,-1.790771484375,0.955810546875
2021-09-24 22:49:08.122185,0.0302734375,0.5634765625,0.85400390625,33.37646484375,-1.790771484375,0.955810546875
2021-09-24 22:49:08.122278,0.03076171875,0.5615234375,0.8544921875,33.37646484375,-1.790771484375,0.955810546875
