time,acc_x,acc_y,acc_z,roll,pitch,yaw
2021-09-19 10:49:14.391859,-0.1826171875,0.1220703125,0.9736328125,7.0697021484375,10.4644775390625,0.010986328125
2021-09-19 10:49:14.402755,-0.1826171875,0.1220703125,0.9736328125,7.0697021484375,10.4644775390625,0.010986328125
2021-09-19 10:49:14.412679,-0.1826171875,0.119140625,0.97314453125,7.0697021484375,10.4644775390625,0.010986328125
2021-09-19 10:49:14.422551,-0.1806640625,0.1201171875,0.97216796875,7.064208984375,10.4644775390625,0.010986328125
2021-09-19 10:49:14.432509,-0.18115234375,0.1201171875,0.9736328125,7.064208984375,10.4644775390625,0.010986328125
2021-09-19 10:49:14.442330,-0.181640625,0.1201171875,0.97314453125,7.064208984375,10.4644775390625,0.010986328125
2021-09-19 10:49:14.452424,-0.1806640625,0.1201171875,0.9755859375,7.064208984375,10.4644775390625,0.010986328125
2021-09-19 10:49:14.462259,-0.1806640625,0.12109375,0.97509765625,7.064208984375,10.4644775390625,0.010986328125
2021-09-19 10:49:14.472334,-0.1806640625,0.12109375,0.97509765625,7.064208984375,10.4644775390625,0.010986328125
2021-09-19 10:49:14.482326,-0.181640625,0.12109375,0.9736328125,7.064208984375,10.4644775390625,0.010986328125
2021-09-19 10:49:14.492213,-0.181640625,0.1201171875,0.974609375,7.064208984375,10.4644775390625,0.010986328125
2021-09-19 10:49:14.502238,-0.18212890625,0.12158203125,0.97216796875,7.064208984375,10.4644775390625,0.010986328125
2021-09-19 10:49:14.512265,-0.18310546875,0.1220703125,0.97705078125,7.064208984375,10.4644775390625,0.010986328125
2021-09-19 10:49:14.522155,-0.18212890625,0.119140625,0.974609375,7.064208984375,10.4644775390625,0.010986328125
2021-09-19 10:49:14.532063,-0.1806640625,0.119140625,0.97412109375,7.064208984375,10.4644775390625,0.010986328125
2021-09-19 10:49:14.542108,-0.1806640625,0.1201171875,0.9755859375,7.064208984375,10.4644775390625,0.010986328125
2021-09-19 10:49:14.552103,-0.181640625,0.1201171875,0.97509765625,7.064208984375,10.4644775390625,0.010986328125
2021-09-19 10:49:14.561977,-0.18212890625,0.1201171875,0.97216796875,7.064208984375,10.4644775390625,0.010986328125
2021-09-19 10:49:14.571919,-0.181640625,0.119140625,0.97314453125,7.064208984375,10.4644775390625,0.010986328125
2021-09-19 10:49:14.582075,-0.1826171875,0.12158203125,0.9765625,7.064208984375,10.4644775390625,0.010986328125
2021-09-19 10:49:14.591942,-0.18017578125,0.1201171875,0.9755859375,7.064208984375,10.4644775390625,0.010986328125
2021-09-19 10:49:14.601861,-0.18115234375,0.12158203125,0.97412109375,7.064208984375,10.4644775390625,0.010986328125
2021-09-19 10:49:14.611782,-0.181640625,0.1201171875,0.97412109375,7.064208984375,10.4644775390625,0.010986328125
2021-09-19 10:49:14.621872,-0.181640625,0.1201171875,0.97607421875,7.064208984375,10.4644775390625,0.010986328125
2021-09-19 10:49:14.631762,-0.18310546875,0.1201171875,0.974609375,7.064208984375,10.4644775390625,0.010986328125
2021-09-19 10:49:14.641689,-0.18212890625,0.119140625,0.9765625,7.0587158203125,10.469970703125,0.010986328125
2021-09-19 10:49:14.651766,-0.181640625,0.11962890625,0.9765625,7.0587158203125,10.4644775390625,0.010986328125
2021-09-19 10:49:14.661709,-0.181640625,0.119140625,0.97607421875,7.0587158203125,10.469970703125,0.010986328125
2021-09-19 10:49:14.671680,-0.1806640625,0.12060546875,0.9755859375,7.0587158203125,10.4644775390625,0.010986328125
2021-09-19 10:49:14.681525,-0.1826171875,0.1201171875,0.97314453125,7.0587158203125,10.469970703125,0.010986328125
2021-09-19 10:49:14.691590,-0.1796875,0.12060546875,0.9765625,7.0587158203125,10.4644775390625,0.010986328125
2021-09-19 10:49:14.701500,-0.18115234375,0.12255859375,0.97412109375,7.0587158203125,10.4644775390625,0.010986328125
2021-09-19 10:49:14.711427,-0.181640625,0.12060546875,0.9755859375,7.0587158203125,10.4644775390625,0.010986328125
2021-09-19 10:49:14.721606,-0.1826171875,0.12060546875,0.97607421875,7.0587158203125,10.4644775390625,0.010986328125
2021-09-19 10:49:14.731475,-0.181640625,0.12060546875,0.97216796875,7.0587158203125,10.4644775390625,0.010986328125
2021-09-19 10:49:14.741365,-0.18115234375,0.12060546875,0.97119140625,7.0587158203125,10.469970703125,0.010986328125
2021-09-19 10:49:14.751278,-0.18212890625,0.1220703125,0.97265625,7.0587158203125,10.469970703125,0.010986328125
2021-09-19 10:49:14.761443,-0.181640625,0.12158203125,0.97265625,7.0587158203125,10.469970703125,0.010986328125
2021-09-19 10:49:14.771364,-0.1806640625,0.123046875,0.974609375,7.064208984375,10.469970703125,0.010986328125
2021-09-19 10:49:14.782110,-0.17919921875,0.12158203125,0.97265625,7.064208984375,10.4644775390625,0.010986328125
2021-09-19 10:49:14.791128,-0.1796875,0.12109375,0.97216796875,7.064208984375,10.4644775390625,0.010986328125
2021-09-19 10:49:14.801204,-0.18017578125,0.12060546875,0.97412109375,7.064208984375,10.4644775390625,0.010986328125
2021-09-19 10:49:14.811124,-0.1806640625,0.12060546875,0.97216796875,7.064208984375,10.4644775390625,0.010986328125
2021-09-19 10:49:14.821171,-0.1796875,0.11865234375,0.97265625,7.064208984375,10.4644775390625,0.010986328125
2021-09-19 10:49:14.831157,-0.1806640625,0.1201171875,0.97412109375,7.064208984375,10.4644775390625,0.010986328125
2021-09-19 10:49:14.841020,-0.1806640625,0.12109375,0.97509765625,7.064208984375,10.4644775390625,0.010986328125
2021-09-19 10:49:14.850953,-0.1806640625,0.12255859375,0.97509765625,7.064208984375,10.4644775390625,0.010986328125
2021-09-19 10:49:14.860934,-0.18115234375,0.12109375,0.97314453125,7.064208984375,10.4644775390625,0.010986328125
2021-09-19 10:49:14.870993,-0.18212890625,0.11865234375,0.9716796875,7.064208984375,10.4644775390625,0.010986328125
2021-09-19 10:49:14.880906,-0.18115234375,0.1201171875,0.97314453125,7.064208984375,10.4644775390625,0.010986328125
2021-09-19 10:49:14.890816,-0.18115234375,0.12109375,0.97216796875,7.064208984375,10.4644775390625,0.010986328125
2021-09-19 10:49:14.900922,-0.18115234375,0.12060546875,0.97412109375,7.064208984375,10.4644775390625,0.010986328125
2021-09-19 10:49:14.910985,-0.18017578125,0.11962890625,0.97314453125,7.0587158203125,10.4644775390625,0.010986328125
2021-09-19 10:49:14.920799,-0.18115234375,0.11962890625,0.9736328125,7.0587158203125,10.4644775390625,0.010986328125
2021-09-19 10:49:14.930654,-0.18212890625,0.12109375,0.97412109375,7.0587158203125,10.4644775390625,0.010986328125
2021-09-19 10:49:14.940611,-0.18212890625,0.12060546875,0.9736328125,7.0587158203125,10.4644775390625,0.010986328125
2021-09-19 10:49:14.950681,-0.18017578125,0.12109375,0.9716796875,7.064208984375,10.4644775390625,0.010986328125
2021-09-19 10:49:14.960737,-0.18017578125,0.12109375,0.9736328125,7.064208984375,10.4644775390625,0.010986328125
2021-09-19 10:49:14.970567,-0.181640625,0.1201171875,0.97412109375,7.0587158203125,10.4644775390625,0.010986328125
2021-09-19 10:49:14.980587,-0.181640625,0.1201171875,0.9736328125,7.0587158203125,10.4644775390625,0.010986328125
2021-09-19 10:49:14.990541,-0.18115234375,0.1201171875,0.97412109375,7.0587158203125,10.4644775390625,0.010986328125
2021-09-19 10:49:15.000419,-0.18212890625,0.11962890625,0.9736328125,7.0587158203125,10.4644775390625,0.010986328125
2021-09-19 10:49:15.010699,-0.18408203125,0.12109375,0.97314453125,7.0587158203125,10.4644775390625,0.010986328125
2021-09-19 10:49:15.020439,-0.18310546875,0.12255859375,0.9736328125,7.064208984375,10.4644775390625,0.010986328125
2021-09-19 10:49:15.030388,-0.1826171875,0.1220703125,0.9755859375,7.064208984375,10.469970703125,0.010986328125
2021-09-19 10:49:15.040289,-0.18115234375,0.1220703125,0.97314453125,7.064208984375,10.469970703125,0.010986328125
2021-09-19 10:49:15.050415,-0.1796875,0.12109375,0.97412109375,7.064208984375,10.4644775390625,0.010986328125
2021-09-19 10:49:15.060391,-0.181640625,0.12158203125,0.970703125,7.064208984375,10.4644775390625,0.010986328125
2021-09-19 10:49:15.070228,-0.1806640625,0.12060546875,0.9765625,7.064208984375,10.4644775390625,0.010986328125
2021-09-19 10:49:15.080150,-0.17919921875,0.119140625,0.97705078125,7.064208984375,10.4644775390625,0.010986328125
2021-09-19 10:49:15.090288,-0.18212890625,0.12060546875,0.9736328125,7.064208984375,10.4644775390625,0.010986328125
2021-09-19 10:49:15.100165,-0.18115234375,0.12060546875,0.97314453125,7.064208984375,10.4644775390625,0.010986328125
2021-09-19 10:49:15.110177,-0.18115234375,0.12060546875,0.9736328125,7.064208984375,10.4644775390625,0.010986328125
2021-09-19 10:49:15.120064,-0.181640625,0.12109375,0.9755859375,7.064208984375,10.4644775390625,0.010986328125
2021-09-19 10:49:15.130109,-0.181640625,0.12158203125,0.97509765625,7.064208984375,10.4644775390625,0.010986328125
2021-09-19 10:49:15.140028,-0.1806640625,0.12109375,0.97509765625,7.064208984375,10.4644775390625,0.010986328125
2021-09-19 10:49:15.149959,-0.181640625,0.1220703125,0.97119140625,7.064208984375,10.4644775390625,0.010986328125
2021-09-19 10:49:15.160053,-0.1826171875,0.1220703125,0.97265625,7.064208984375,10.4644775390625,0.010986328125
2021-09-19 10:49:15.169962,-0.18212890625,0.12109375,0.97314453125,7.064208984375,10.4644775390625,0.010986328125
2021-09-19 10:49:15.179990,-0.1826171875,0.11962890625,0.97412109375,7.064208984375,10.469970703125,0.010986328125
2021-09-19 10:49:15.189766,-0.1806640625,0.12109375,0.9736328125,7.064208984375,10.469970703125,0.010986328125
2021-09-19 10:49:15.199857,-0.181640625,0.12158203125,0.9755859375,7.064208984375,10.469970703125,0.010986328125
2021-09-19 10:49:15.209753,-0.181640625,0.12158203125,0.974609375,7.064208984375,10.469970703125,0.010986328125
2021-09-19 10:49:15.219669,-0.18017578125,0.12158203125,0.9716796875,7.064208984375,10.4644775390625,0.010986328125
2021-09-19 10:49:15.229879,-0.18115234375,0.12158203125,0.97216796875,7.064208984375,10.4644775390625,0.010986328125
2021-09-19 10:49:15.239716,-0.18017578125,0.12060546875,0.97509765625,7.064208984375,10.4644775390625,0.010986328125
2021-09-19 10:49:15.249596,-0.18017578125,0.12060546875,0.97119140625,7.064208984375,10.4644775390625,0.010986328125
2021-09-19 10:49:15.259522,-0.18212890625,0.12060546875,0.97265625,7.064208984375,10.4644775390625,0.010986328125
2021-09-19 10:49:15.269612,-0.181640625,0.119140625,0.97265625,7.064208984375,10.4644775390625,0.010986328125
2021-09-19 10:49:15.280627,-0.1806640625,0.1181640625,0.970703125,7.064208984375,10.4644775390625,0.010986328125
2021-09-19 10:49:15.289466,-0.18115234375,0.11865234375,0.97509765625,7.064208984375,10.4644775390625,0.010986328125
2021-09-19 10:49:15.299366,-0.18115234375,0.11962890625,0.9765625,7.064208984375,10.4644775390625,0.010986328125
2021-09-19 10:49:15.309424,-0.18310546875,0.12060546875,0.9775390625,7.064208984375,10.469970703125,0.010986328125
2021-09-19 10:49:15.319337,-0.18115234375,0.12060546875,0.97509765625,7.064208984375,10.4644775390625,0.010986328125
2021-09-19 10:49:15.329423,-0.18017578125,0.1201171875,0.97412109375,7.064208984375,10.4644775390625,0.010986328125
2021-09-19 10:49:15.339367,-0.18115234375,0.12109375,0.97265625,7.064208984375,10.4644775390625,0.010986328125
2021-09-19 10:49:15.349323,-0.18212890625,0.12109375,0.97509765625,7.064208984375,10.4644775390625,0.010986328125
2021-09-19 10:49:15.359247,-0.18115234375,0.1201171875,0.9755859375,7.064208984375,10.4644775390625,0.010986328125
2021-09-19 10:49:15.369271,-0.1806640625,0.1220703125,0.97705078125,7.064208984375,10.4644775390625,0.010986328125
2021-09-19 10:49:15.379335,-0.181640625,0.12158203125,0.97265625,7.064208984375,10.4644775390625,0.010986328125
2021-09-19 10:49:15.389171,-0.1806640625,0.12109375,0.97314453125,7.064208984375,10.4644775390625,0.010986328125
2021-09-19 10:49:15.399072,-0.1806640625,0.12158203125,0.97705078125,7.064208984375,10.4644775390625,0.010986328125
2021-09-19 10:49:15.409144,-0.18017578125,0.1201171875,0.97607421875,7.064208984375,10.4644775390625,0.010986328125
2021-09-19 10:49:15.419059,-0.181640625,0.123046875,0.97509765625,7.064208984375,10.4644775390625,0.010986328125
2021-09-19 10:49:15.429083,-0.181640625,0.1220703125,0.9765625,7.064208984375,10.4644775390625,0.010986328125
2021-09-19 10:49:15.438923,-0.181640625,0.1220703125,0.974609375,7.064208984375,10.4644775390625,0.010986328125
2021-09-19 10:49:15.448966,-0.1826171875,0.1220703125,0.9775390625,7.064208984375,10.4644775390625,0.010986328125
2021-09-19 10:49:15.458936,-0.18359375,0.1201171875,0.974609375,7.064208984375,10.4644775390625,0.010986328125
2021-09-19 10:49:15.468801,-0.18359375,0.12060546875,0.9716796875,7.064208984375,10.469970703125,0.010986328125
2021-09-19 10:49:15.479082,-0.1806640625,0.12060546875,0.9716796875,7.064208984375,10.469970703125,0.010986328125
2021-09-19 10:49:15.488868,-0.1806640625,0.12158203125,0.97509765625,7.064208984375,10.4644775390625,0.010986328125
2021-09-19 10:49:15.498732,-0.18212890625,0.119140625,0.978515625,7.064208984375,10.4644775390625,0.010986328125
2021-09-19 10:49:15.508819,-0.18115234375,0.12060546875,0.97509765625,7.064208984375,10.4644775390625,0.010986328125
2021-09-19 10:49:15.518707,-0.1806640625,0.1201171875,0.970703125,7.064208984375,10.4644775390625,0.010986328125
2021-09-19 10:49:15.528757,-0.1796875,0.1201171875,0.97412109375,7.064208984375,10.4644775390625,0.010986328125
2021-09-19 10:49:15.538599,-0.18115234375,0.1220703125,0.9755859375,7.064208984375,10.4644775390625,0.010986328125
2021-09-19 10:49:15.548635,-0.18212890625,0.119140625,0.97412109375,7.064208984375,10.4644775390625,0.010986328125
2021-09-19 10:49:15.558598,-0.181640625,0.12060546875,0.97509765625,7.064208984375,10.4644775390625,0.010986328125
2021-09-19 10:49:15.568476,-0.181640625,0.1220703125,0.9716796875,7.064208984375,10.4644775390625,0.010986328125
2021-09-19 10:49:15.578503,-0.181640625,0.12158203125,0.97265625,7.064208984375,10.4644775390625,0.010986328125
2021-09-19 10:49:15.588358,-0.1787109375,0.1220703125,0.97265625,7.064208984375,10.4644775390625,0.010986328125
2021-09-19 10:49:15.598435,-0.1806640625,0.12158203125,0.97412109375,7.064208984375,10.4644775390625,0.010986328125
2021-09-19 10:49:15.608371,-0.18115234375,0.1220703125,0.9736328125,7.0697021484375,10.4644775390625,0.010986328125
2021-09-19 10:49:15.618443,-0.18017578125,0.1201171875,0.97216796875,7.0697021484375,10.4644775390625,0.010986328125
2021-09-19 10:49:15.628383,-0.1826171875,0.119140625,0.97216796875,7.064208984375,10.4644775390625,0.010986328125
2021-09-19 10:49:15.638311,-0.181640625,0.11767578125,0.97509765625,7.064208984375,10.4644775390625,0.010986328125
2021-09-19 10:49:15.648166,-0.181640625,0.11962890625,0.9736328125,7.064208984375,10.4644775390625,0.010986328125
2021-09-19 10:49:15.658285,-0.1806640625,0.1201171875,0.97412109375,7.064208984375,10.4644775390625,0.010986328125
2021-09-19 10:49:15.668182,-0.181640625,0.12060546875,0.97265625,7.064208984375,10.4644775390625,0.010986328125
2021-09-19 10:49:15.678200,-0.18115234375,0.12109375,0.97119140625,7.064208984375,10.4644775390625,0.010986328125
2021-09-19 10:49:15.688215,-0.181640625,0.12158203125,0.97607421875,7.064208984375,10.4644775390625,0.010986328125
2021-09-19 10:49:15.698148,-0.18017578125,0.12109375,0.97607421875,7.064208984375,10.4644775390625,0.010986328125
2021-09-19 10:49:15.708008,-0.18115234375,0.1220703125,0.97802734375,7.064208984375,10.4644775390625,0.010986328125
2021-09-19 10:49:15.718199,-0.18115234375,0.1220703125,0.97265625,7.064208984375,10.4644775390625,0.010986328125
2021-09-19 10:49:15.728077,-0.181640625,0.1201171875,0.97412109375,7.064208984375,10.4644775390625,0.010986328125
2021-09-19 10:49:15.737972,-0.181640625,0.12109375,0.97314453125,7.064208984375,10.4644775390625,0.010986328125
2021-09-19 10:49:15.747872,-0.181640625,0.1201171875,0.97412109375,7.064208984375,10.4644775390625,0.010986328125
2021-09-19 10:49:15.757911,-0.18212890625,0.1201171875,0.974609375,7.064208984375,10.4644775390625,0.010986328125
2021-09-19 10:49:15.767870,-0.1826171875,0.1201171875,0.97119140625,7.064208984375,10.4644775390625,0.010986328125
2021-09-19 10:49:15.778831,-0.18310546875,0.11865234375,0.97314453125,7.064208984375,10.469970703125,0.010986328125
2021-09-19 10:49:15.787690,-0.1826171875,0.12060546875,0.974609375,7.064208984375,10.469970703125,0.010986328125
2021-09-19 10:49:15.797748,-0.1826171875,0.12255859375,0.9736328125,7.064208984375,10.469970703125,0.010986328125
2021-09-19 10:49:15.807693,-0.18017578125,0.12109375,0.9736328125,7.064208984375,10.469970703125,0.010986328125
2021-09-19 10:49:15.817591,-0.1806640625,0.12109375,0.97265625,7.064208984375,10.469970703125,0.010986328125
2021-09-19 10:49:15.827717,-0.1796875,0.12109375,0.9736328125,7.064208984375,10.469970703125,0.010986328125
2021-09-19 10:49:15.837623,-0.17919921875,0.12158203125,0.9755859375,7.064208984375,10.4644775390625,0.010986328125
2021-09-19 10:49:15.847569,-0.18115234375,0.1201171875,0.97607421875,7.064208984375,10.4644775390625,0.010986328125
2021-09-19 10:49:15.857491,-0.18212890625,0.12060546875,0.9736328125,7.064208984375,10.4644775390625,0.010986328125
2021-09-19 10:49:15.867668,-0.181640625,0.11962890625,0.97412109375,7.064208984375,10.4644775390625,0.010986328125
2021-09-19 10:49:15.877504,-0.18212890625,0.119140625,0.9736328125,7.064208984375,10.469970703125,0.010986328125
2021-09-19 10:49:15.887439,-0.18359375,0.12060546875,0.97314453125,7.064208984375,10.469970703125,0.010986328125
2021-09-19 10:49:15.897449,-0.18115234375,0.12158203125,0.970703125,7.064208984375,10.469970703125,0.010986328125
2021-09-19 10:49:15.907426,-0.1806640625,0.11962890625,0.974609375,7.064208984375,10.469970703125,0.010986328125
2021-09-19 10:49:15.917439,-0.18310546875,0.12109375,0.97314453125,7.064208984375,10.469970703125,0.010986328125
2021-09-19 10:49:15.927294,-0.18310546875,0.12109375,0.97021484375,7.064208984375,10.469970703125,0.010986328125
2021-09-19 10:49:15.937311,-0.181640625,0.12158203125,0.97265625,7.064208984375,10.469970703125,0.010986328125
2021-09-19 10:49:15.947229,-0.1796875,0.119140625,0.9736328125,7.064208984375,10.469970703125,0.010986328125
2021-09-19 10:49:15.957110,-0.18115234375,0.12060546875,0.97314453125,7.064208984375,10.469970703125,0.010986328125
2021-09-19 10:49:15.967185,-0.18115234375,0.11962890625,0.97314453125,7.064208984375,10.469970703125,0.010986328125
2021-09-19 10:49:15.977168,-0.1806640625,0.12158203125,0.97216796875,7.064208984375,10.469970703125,0.010986328125
2021-09-19 10:49:15.987073,-0.181640625,0.123046875,0.97119140625,7.064208984375,10.469970703125,0.010986328125
2021-09-19 10:49:15.996971,-0.18212890625,0.1220703125,0.970703125,7.064208984375,10.469970703125,0.010986328125
2021-09-19 10:49:16.007009,-0.18115234375,0.11962890625,0.9716796875,7.064208984375,10.469970703125,0.010986328125
2021-09-19 10:49:16.017064,-0.1806640625,0.12060546875,0.9736328125,7.064208984375,10.469970703125,0.010986328125
2021-09-19 10:49:16.026928,-0.1806640625,0.12158203125,0.9755859375,7.064208984375,10.469970703125,0.010986328125
2021-09-19 10:49:16.036811,-0.18310546875,0.12109375,0.9755859375,7.064208984375,10.469970703125,0.010986328125
2021-09-19 10:49:16.046906,-0.18212890625,0.12109375,0.97509765625,7.064208984375,10.469970703125,0.010986328125
2021-09-19 10:49:16.056794,-0.18115234375,0.12060546875,0.97509765625,7.064208984375,10.469970703125,0.010986328125
2021-09-19 10:49:16.066817,-0.1826171875,0.11865234375,0.974609375,7.064208984375,10.469970703125,0.010986328125
2021-09-19 10:49:16.076621,-0.18212890625,0.1201171875,0.97216796875,7.064208984375,10.469970703125,0.010986328125
2021-09-19 10:49:16.086745,-0.18115234375,0.11962890625,0.97265625,7.064208984375,10.469970703125,0.010986328125
2021-09-19 10:49:16.096698,-0.18115234375,0.119140625,0.974609375,7.064208984375,10.469970703125,0.010986328125
2021-09-19 10:49:16.106552,-0.18212890625,0.1201171875,0.97607421875,7.064208984375,10.469970703125,0.010986328125
2021-09-19 10:49:16.116727,-0.1806640625,0.12255859375,0.97412109375,7.064208984375,10.469970703125,0.010986328125
2021-09-19 10:49:16.126610,-0.18017578125,0.1201171875,0.9755859375,7.064208984375,10.469970703125,0.010986328125
2021-09-19 10:49:16.136504,-0.18115234375,0.12158203125,0.97509765625,7.064208984375,10.469970703125,0.010986328125
2021-09-19 10:49:16.146418,-0.1806640625,0.1220703125,0.97412109375,7.064208984375,10.469970703125,0.010986328125
2021-09-19 10:49:16.156609,-0.1826171875,0.11962890625,0.9716796875,7.064208984375,10.469970703125,0.010986328125
2021-09-19 10:49:16.166507,-0.18115234375,0.1201171875,0.9716796875,7.064208984375,10.469970703125,0.010986328125
2021-09-19 10:49:16.176368,-0.181640625,0.11962890625,0.974609375,7.064208984375,10.469970703125,0.010986328125
2021-09-19 10:49:16.186285,-0.1806640625,0.11865234375,0.97314453125,7.064208984375,10.469970703125,0.010986328125
2021-09-19 10:49:16.196323,-0.181640625,0.1201171875,0.9736328125,7.0587158203125,10.469970703125,0.010986328125
2021-09-19 10:49:16.206362,-0.17919921875,0.12158203125,0.974609375,7.064208984375,10.469970703125,0.010986328125
2021-09-19 10:49:16.216169,-0.18212890625,0.12060546875,0.97412109375,7.064208984375,10.469970703125,0.010986328125
2021-09-19 10:49:16.226317,-0.18115234375,0.12109375,0.9736328125,7.064208984375,10.469970703125,0.010986328125
2021-09-19 10:49:16.236197,-0.1806640625,0.1201171875,0.97314453125,7.064208984375,10.469970703125,0.010986328125
2021-09-19 10:49:16.246089,-0.1796875,0.12109375,0.97265625,7.064208984375,10.469970703125,0.010986328125
2021-09-19 10:49:16.256220,-0.18017578125,0.12109375,0.97607421875,7.064208984375,10.469970703125,0.010986328125
2021-09-19 10:49:16.266152,-0.181640625,0.12158203125,0.97314453125,7.064208984375,10.469970703125,0.010986328125
2021-09-19 10:49:16.277076,-0.181640625,0.1201171875,0.974609375,7.064208984375,10.469970703125,0.010986328125
2021-09-19 10:49:16.285956,-0.1826171875,0.1201171875,0.9755859375,7.064208984375,10.469970703125,0.010986328125
2021-09-19 10:49:16.295966,-0.18115234375,0.11962890625,0.97607421875,7.0587158203125,10.469970703125,0.010986328125
2021-09-19 10:49:16.306004,-0.181640625,0.12060546875,0.9716796875,7.0587158203125,10.469970703125,0.010986328125
2021-09-19 10:49:16.315892,-0.18310546875,0.11962890625,0.97412109375,7.0587158203125,10.469970703125,0.010986328125
2021-09-19 10:49:16.325797,-0.18359375,0.12060546875,0.97314453125,7.0587158203125,10.469970703125,0.010986328125
2021-09-19 10:49:16.335878,-0.18212890625,0.12109375,0.97265625,7.0587158203125,10.469970703125,0.010986328125
2021-09-19 10:49:16.345925,-0.1826171875,0.12109375,0.97412109375,7.0587158203125,10.4754638671875,0.010986328125
2021-09-19 10:49:16.355734,-0.18212890625,0.12060546875,0.97265625,7.0587158203125,10.4754638671875,0.010986328125
2021-09-19 10:49:16.365637,-0.18017578125,0.12109375,0.974609375,7.0587158203125,10.469970703125,0.010986328125
2021-09-19 10:49:16.375728,-0.18017578125,0.12060546875,0.97412109375,7.0587158203125,10.469970703125,0.010986328125
2021-09-19 10:49:16.385646,-0.18115234375,0.119140625,0.9736328125,7.0587158203125,10.469970703125,0.010986328125
2021-09-19 10:49:16.395587,-0.18115234375,0.11962890625,0.97412109375,7.0587158203125,10.469970703125,0.010986328125
2021-09-19 10:49:16.405661,-0.1796875,0.11865234375,0.9755859375,7.0587158203125,10.469970703125,0.010986328125
2021-09-19 10:49:16.415535,-0.1806640625,0.12158203125,0.97216796875,7.0587158203125,10.469970703125,0.010986328125
2021-09-19 10:49:16.425486,-0.181640625,0.1220703125,0.97119140625,7.0587158203125,10.469970703125,0.010986328125
2021-09-19 10:49:16.435550,-0.17919921875,0.1220703125,0.97265625,7.0587158203125,10.469970703125,0.010986328125
2021-09-19 10:49:16.445504,-0.1796875,0.1201171875,0.97265625,7.0587158203125,10.469970703125,0.010986328125
2021-09-19 10:49:16.455466,-0.1796875,0.1201171875,0.97314453125,7.0587158203125,10.469970703125,0.010986328125
2021-09-19 10:49:16.465321,-0.181640625,0.12060546875,0.97314453125,7.0587158203125,10.469970703125,0.010986328125
2021-09-19 10:49:16.475263,-0.18212890625,0.12060546875,0.97509765625,7.0587158203125,10.469970703125,0.010986328125
2021-09-19 10:49:16.485433,-0.181640625,0.1201171875,0.9736328125,7.0587158203125,10.469970703125,0.010986328125
2021-09-19 10:49:16.495304,-0.18115234375,0.1201171875,0.9736328125,7.0587158203125,10.469970703125,0.010986328125
2021-09-19 10:49:16.505197,-0.1806640625,0.1220703125,0.97412109375,7.0587158203125,10.469970703125,0.010986328125
2021-09-19 10:49:16.515260,-0.18115234375,0.1220703125,0.974609375,7.0587158203125,10.469970703125,0.010986328125
2021-09-19 10:49:16.525150,-0.181640625,0.12060546875,0.97412109375,7.0587158203125,10.469970703125,0.010986328125
2021-09-19 10:49:16.535187,-0.1826171875,0.11962890625,0.9736328125,7.0587158203125,10.469970703125,0.010986328125
2021-09-19 10:49:16.545038,-0.1826171875,0.12109375,0.974609375,7.0587158203125,10.469970703125,0.010986328125
2021-09-19 10:49:16.555133,-0.18212890625,0.12060546875,0.97412109375,7.0587158203125,10.469970703125,0.010986328125
2021-09-19 10:49:16.565020,-0.181640625,0.12060546875,0.97216796875,7.0587158203125,10.469970703125,0.010986328125
2021-09-19 10:49:16.574974,-0.1826171875,0.12158203125,0.97265625,7.064208984375,10.469970703125,0.010986328125
2021-09-19 10:49:16.584909,-0.1826171875,0.1201171875,0.97314453125,7.0587158203125,10.469970703125,0.010986328125
2021-09-19 10:49:16.594973,-0.18115234375,0.11962890625,0.97412109375,7.0587158203125,10.469970703125,0.010986328125
2021-09-19 10:49:16.604846,-0.1806640625,0.1201171875,0.97314453125,7.0587158203125,10.469970703125,0.010986328125
2021-09-19 10:49:16.614952,-0.18310546875,0.11962890625,0.97265625,7.0587158203125,10.4754638671875,0.010986328125
2021-09-19 10:49:16.625020,-0.18212890625,0.12060546875,0.9736328125,7.0587158203125,10.4754638671875,0.010986328125
2021-09-19 10:49:16.634800,-0.18310546875,0.12255859375,0.97265625,7.0587158203125,10.4754638671875,0.010986328125
2021-09-19 10:49:16.644700,-0.181640625,0.12255859375,0.97412109375,7.064208984375,10.4754638671875,0.010986328125
2021-09-19 10:49:16.654778,-0.18115234375,0.12158203125,0.97216796875,7.064208984375,10.4754638671875,0.010986328125
2021-09-19 10:49:16.664695,-0.1806640625,0.1201171875,0.97509765625,7.064208984375,10.4754638671875,0.010986328125
2021-09-19 10:49:16.674774,-0.181640625,0.12060546875,0.97265625,7.064208984375,10.4754638671875,0.010986328125
2021-09-19 10:49:16.684753,-0.1796875,0.12109375,0.974609375,7.064208984375,10.4754638671875,0.010986328125
2021-09-19 10:49:16.694626,-0.1796875,0.1201171875,0.9736328125,7.064208984375,10.469970703125,0.010986328125
2021-09-19 10:49:16.704545,-0.1796875,0.12109375,0.97265625,7.064208984375,10.469970703125,0.010986328125
2021-09-19 10:49:16.714479,-0.18017578125,0.12109375,0.97705078125,7.064208984375,10.469970703125,0.010986328125
2021-09-19 10:49:16.724701,-0.17919921875,0.123046875,0.974609375,7.064208984375,10.469970703125,0.010986328125
2021-09-19 10:49:16.734529,-0.18017578125,0.12255859375,0.97119140625,7.064208984375,10.469970703125,0.010986328125
2021-09-19 10:49:16.744416,-0.18212890625,0.12255859375,0.974609375,7.064208984375,10.469970703125,0.010986328125
2021-09-19 10:49:16.754295,-0.18212890625,0.1220703125,0.974609375,7.064208984375,10.469970703125,0.010986328125
2021-09-19 10:49:16.764392,-0.181640625,0.1220703125,0.97412109375,7.0697021484375,10.469970703125,0.010986328125
2021-09-19 10:49:16.775408,-0.1826171875,0.12109375,0.97265625,7.0697021484375,10.469970703125,0.010986328125
2021-09-19 10:49:16.784253,-0.1826171875,0.12109375,0.97509765625,7.0697021484375,10.469970703125,0.010986328125
2021-09-19 10:49:16.794140,-0.18017578125,0.12060546875,0.9736328125,7.0697021484375,10.469970703125,0.010986328125
2021-09-19 10:49:16.804192,-0.18115234375,0.12060546875,0.97314453125,7.0697021484375,10.469970703125,0.010986328125
2021-09-19 10:49:16.814148,-0.181640625,0.12158203125,0.97412109375,7.0697021484375,10.469970703125,0.010986328125
2021-09-19 10:49:16.824128,-0.18310546875,0.12158203125,0.9736328125,7.0697021484375,10.469970703125,0.010986328125
2021-09-19 10:49:16.834191,-0.18115234375,0.12158203125,0.97412109375,7.0697021484375,10.469970703125,0.010986328125
2021-09-19 10:49:16.844068,-0.1826171875,0.12158203125,0.97607421875,7.0697021484375,10.469970703125,0.010986328125
2021-09-19 10:49:16.854005,-0.18115234375,0.12109375,0.9736328125,7.0697021484375,10.469970703125,0.010986328125
2021-09-19 10:49:16.863893,-0.1806640625,0.1201171875,0.97314453125,7.0697021484375,10.469970703125,0.010986328125
2021-09-19 10:49:16.874056,-0.18017578125,0.12060546875,0.97314453125,7.0697021484375,10.469970703125,0.010986328125
2021-09-19 10:49:16.883919,-0.181640625,0.12255859375,0.97314453125,7.0697021484375,10.469970703125,0.010986328125
2021-09-19 10:49:16.893846,-0.18212890625,0.12060546875,0.97265625,7.0697021484375,10.469970703125,0.010986328125
2021-09-19 10:49:16.903910,-0.18017578125,0.12109375,0.97119140625,7.0697021484375,10.469970703125,0.010986328125
2021-09-19 10:49:16.913918,-0.1796875,0.12060546875,0.974609375,7.0697021484375,10.469970703125,0.010986328125
2021-09-19 10:49:16.923804,-0.181640625,0.1201171875,0.97509765625,7.0697021484375,10.469970703125,0.010986328125
2021-09-19 10:49:16.933692,-0.18212890625,0.12060546875,0.97412109375,7.0697021484375,10.469970703125,0.010986328125
2021-09-19 10:49:16.943756,-0.18017578125,0.1201171875,0.9755859375,7.0697021484375,10.469970703125,0.010986328125
2021-09-19 10:49:16.953636,-0.18115234375,0.12109375,0.97412109375,7.0697021484375,10.469970703125,0.010986328125
2021-09-19 10:49:16.963691,-0.18212890625,0.12255859375,0.97265625,7.0697021484375,10.469970703125,0.010986328125
2021-09-19 10:49:16.973672,-0.18017578125,0.123046875,0.97265625,7.0697021484375,10.469970703125,0.010986328125
2021-09-19 10:49:16.983618,-0.18115234375,0.123046875,0.97412109375,7.0751953125,10.469970703125,0.010986328125
2021-09-19 10:49:16.993525,-0.18115234375,0.12060546875,0.97412109375,7.0751953125,10.469970703125,0.010986328125
2021-09-19 10:49:17.003555,-0.18212890625,0.12158203125,0.9736328125,7.0751953125,10.469970703125,0.010986328125
2021-09-19 10:49:17.013557,-0.18115234375,0.12109375,0.97412109375,7.0751953125,10.469970703125,0.010986328125
2021-09-19 10:49:17.023454,-0.1806640625,0.12109375,0.97314453125,7.0751953125,10.469970703125,0.010986328125
2021-09-19 10:49:17.033369,-0.18115234375,0.123046875,0.974609375,7.0751953125,10.469970703125,0.010986328125
2021-09-19 10:49:17.043427,-0.18115234375,0.12158203125,0.97265625,7.0751953125,10.469970703125,0.010986328125
2021-09-19 10:49:17.053465,-0.181640625,0.12060546875,0.974609375,7.0751953125,10.469970703125,0.010986328125
2021-09-19 10:49:17.063315,-0.1806640625,0.12158203125,0.97216796875,7.0751953125,10.469970703125,0.010986328125
2021-09-19 10:49:17.073218,-0.18017578125,0.12060546875,0.974609375,7.0751953125,10.469970703125,0.010986328125
2021-09-19 10:49:17.083273,-0.18212890625,0.12060546875,0.97265625,7.0751953125,10.469970703125,0.010986328125
2021-09-19 10:49:17.093194,-0.1806640625,0.1201171875,0.97412109375,7.0751953125,10.469970703125,0.010986328125
2021-09-19 10:49:17.103281,-0.18017578125,0.119140625,0.97509765625,7.0751953125,10.469970703125,0.010986328125
2021-09-19 10:49:17.113239,-0.1806640625,0.1201171875,0.97412109375,7.0751953125,10.469970703125,0.010986328125
2021-09-19 10:49:17.123147,-0.181640625,0.119140625,0.97412109375,7.0697021484375,10.469970703125,0.010986328125
2021-09-19 10:49:17.133058,-0.181640625,0.12109375,0.97509765625,7.0697021484375,10.469970703125,0.010986328125
2021-09-19 10:49:17.142925,-0.1806640625,0.119140625,0.97509765625,7.0697021484375,10.4644775390625,0.010986328125
2021-09-19 10:49:17.153128,-0.18115234375,0.1181640625,0.97607421875,7.0697021484375,10.4644775390625,0.010986328125
2021-09-19 10:49:17.162979,-0.17919921875,0.11865234375,0.97705078125,7.0697021484375,10.4644775390625,0.010986328125
2021-09-19 10:49:17.172927,-0.18310546875,0.12060546875,0.97412109375,7.0697021484375,10.4644775390625,0.010986328125
2021-09-19 10:49:17.182986,-0.18115234375,0.12109375,0.974609375,7.0697021484375,10.4644775390625,0.010986328125
2021-09-19 10:49:17.192934,-0.1806640625,0.12158203125,0.9736328125,7.0697021484375,10.4644775390625,0.010986328125
2021-09-19 10:49:17.202878,-0.18212890625,0.119140625,0.97412109375,7.0697021484375,10.4644775390625,0.010986328125
2021-09-19 10:49:17.212752,-0.181640625,0.11962890625,0.97509765625,7.064208984375,10.4644775390625,0.010986328125
2021-09-19 10:49:17.222849,-0.181640625,0.12060546875,0.97412109375,7.064208984375,10.4644775390625,0.010986328125
2021-09-19 10:49:17.232717,-0.18115234375,0.1201171875,0.9736328125,7.064208984375,10.4644775390625,0.010986328125
2021-09-19 10:49:17.242809,-0.18017578125,0.1201171875,0.974609375,7.064208984375,10.4644775390625,0.010986328125
2021-09-19 10:49:17.252620,-0.18017578125,0.11865234375,0.97314453125,7.064208984375,10.4644775390625,0.010986328125
2021-09-19 10:49:17.262654,-0.18017578125,0.1201171875,0.970703125,7.064208984375,10.4644775390625,0.010986328125
2021-09-19 10:49:17.273586,-0.1796875,0.12255859375,0.9736328125,7.064208984375,10.4644775390625,0.010986328125
2021-09-19 10:49:17.282443,-0.18017578125,0.12158203125,0.97216796875,7.064208984375,10.4644775390625,0.010986328125
2021-09-19 10:49:17.292558,-0.1806640625,0.1220703125,0.9736328125,7.064208984375,10.4644775390625,0.010986328125
2021-09-19 10:49:17.302513,-0.17919921875,0.12060546875,0.97314453125,7.064208984375,10.4644775390625,0.010986328125
2021-09-19 10:49:17.312447,-0.18017578125,0.12109375,0.97509765625,7.064208984375,10.458984375,0.010986328125
2021-09-19 10:49:17.322335,-0.18017578125,0.12060546875,0.97509765625,7.064208984375,10.458984375,0.010986328125
2021-09-19 10:49:17.332402,-0.18017578125,0.1201171875,0.97607421875,7.064208984375,10.458984375,0.010986328125
2021-09-19 10:49:17.342388,-0.18017578125,0.12109375,0.9736328125,7.064208984375,10.458984375,0.010986328125
2021-09-19 10:49:17.352297,-0.1826171875,0.12158203125,0.97216796875,7.064208984375,10.458984375,0.010986328125
2021-09-19 10:49:17.362161,-0.18212890625,0.123046875,0.9736328125,7.0697021484375,10.458984375,0.010986328125
2021-09-19 10:49:17.372286,-0.18115234375,0.12255859375,0.97265625,7.0697021484375,10.458984375,0.010986328125
2021-09-19 10:49:17.382337,-0.18115234375,0.12158203125,0.9736328125,7.0697021484375,10.458984375,0.010986328125
2021-09-19 10:49:17.392135,-0.18017578125,0.12109375,0.97412109375,7.0697021484375,10.458984375,0.010986328125
2021-09-19 10:49:17.402066,-0.1806640625,0.1201171875,0.97216796875,7.0697021484375,10.458984375,0.010986328125
2021-09-19 10:49:17.412141,-0.1806640625,0.12060546875,0.97412109375,7.0697021484375,10.458984375,0.010986328125
2021-09-19 10:49:17.422061,-0.18115234375,0.12060546875,0.974609375,7.0697021484375,10.458984375,0.010986328125
2021-09-19 10:49:17.432336,-0.18115234375,0.12255859375,0.97216796875,7.0697021484375,10.458984375,0.010986328125
2021-09-19 10:49:17.442118,-0.1806640625,0.1220703125,0.97265625,7.0697021484375,10.458984375,0.010986328125
2021-09-19 10:49:17.452002,-0.181640625,0.12109375,0.97314453125,7.0697021484375,10.458984375,0.010986328125
2021-09-19 10:49:17.461874,-0.181640625,0.12060546875,0.9736328125,7.0697021484375,10.458984375,0.010986328125
2021-09-19 10:49:17.471775,-0.1826171875,0.12060546875,0.97412109375,7.0697021484375,10.458984375,0.010986328125
2021-09-19 10:49:17.481947,-0.18017578125,0.12060546875,0.9736328125,7.0697021484375,10.458984375,0.010986328125
2021-09-19 10:49:17.491848,-0.1796875,0.1201171875,0.97216796875,7.0697021484375,10.458984375,0.010986328125
2021-09-19 10:49:17.501724,-0.1796875,0.12353515625,0.97216796875,7.0697021484375,10.458984375,0.010986328125
2021-09-19 10:49:17.511834,-0.18017578125,0.1220703125,0.97119140625,7.0751953125,10.458984375,0.010986328125
2021-09-19 10:49:17.521671,-0.18212890625,0.11962890625,0.9736328125,7.0751953125,10.458984375,0.010986328125
2021-09-19 10:49:17.531691,-0.18212890625,0.12109375,0.9755859375,7.0751953125,10.458984375,0.010986328125
2021-09-19 10:49:17.541737,-0.18115234375,0.12255859375,0.97509765625,7.0751953125,10.458984375,0.010986328125
2021-09-19 10:49:17.551638,-0.18115234375,0.12060546875,0.97509765625,7.0751953125,10.458984375,0.010986328125
2021-09-19 10:49:17.561551,-0.18017578125,0.11767578125,0.97314453125,7.0697021484375,10.458984375,0.010986328125
2021-09-19 10:49:17.571559,-0.18212890625,0.119140625,0.9736328125,7.0697021484375,10.458984375,0.010986328125
2021-09-19 10:49:17.581596,-0.18212890625,0.11962890625,0.97412109375,7.0697021484375,10.458984375,0.010986328125
2021-09-19 10:49:17.591485,-0.1806640625,0.1201171875,0.974609375,7.0697021484375,10.458984375,0.010986328125
2021-09-19 10:49:17.601426,-0.18212890625,0.12060546875,0.97265625,7.0697021484375,10.458984375,0.010986328125
2021-09-19 10:49:17.611453,-0.18115234375,0.119140625,0.97265625,7.0697021484375,10.458984375,0.010986328125
2021-09-19 10:49:17.621554,-0.18115234375,0.12158203125,0.97412109375,7.0697021484375,10.458984375,0.010986328125
2021-09-19 10:49:17.631372,-0.1826171875,0.12109375,0.974609375,7.0697021484375,10.458984375,0.010986328125
2021-09-19 10:49:17.641233,-0.18115234375,0.12060546875,0.974609375,7.0697021484375,10.458984375,0.010986328125
2021-09-19 10:49:17.651311,-0.18115234375,0.12060546875,0.974609375,7.0697021484375,10.458984375,0.010986328125
2021-09-19 10:49:17.661203,-0.1806640625,0.12060546875,0.97216796875,7.0697021484375,10.458984375,0.010986328125
2021-09-19 10:49:17.671214,-0.18115234375,0.12060546875,0.97412109375,7.0697021484375,10.458984375,0.010986328125
2021-09-19 10:49:17.681280,-0.18115234375,0.12353515625,0.97412109375,7.0697021484375,10.458984375,0.010986328125
2021-09-19 10:49:17.691181,-0.18115234375,0.12109375,0.97265625,7.0697021484375,10.458984375,0.010986328125
2021-09-19 10:49:17.701083,-0.181640625,0.12158203125,0.97216796875,7.0697021484375,10.458984375,0.010986328125
2021-09-19 10:49:17.711115,-0.18115234375,0.12158203125,0.9736328125,7.0697021484375,10.458984375,0.010986328125
2021-09-19 10:49:17.721136,-0.1806640625,0.12158203125,0.974609375,7.0697021484375,10.458984375,0.010986328125
2021-09-19 10:49:17.731035,-0.1806640625,0.12158203125,0.97412109375,7.0697021484375,10.458984375,0.010986328125
2021-09-19 10:49:17.740932,-0.181640625,0.12060546875,0.97412109375,7.0697021484375,10.458984375,0.010986328125
2021-09-19 10:49:17.751011,-0.18115234375,0.12060546875,0.97412109375,7.0697021484375,10.458984375,0.010986328125
2021-09-19 10:49:17.761094,-0.18115234375,0.119140625,0.9755859375,7.0697021484375,10.458984375,0.010986328125
2021-09-19 10:49:17.771932,-0.1796875,0.12158203125,0.97802734375,7.0697021484375,10.458984375,0.010986328125
2021-09-19 10:49:17.780780,-0.1826171875,0.12353515625,0.97509765625,7.0697021484375,10.458984375,0.010986328125
2021-09-19 10:49:17.790841,-0.18212890625,0.1220703125,0.9775390625,7.0751953125,10.458984375,0.010986328125
2021-09-19 10:49:17.800738,-0.18359375,0.1201171875,0.97705078125,7.0697021484375,10.458984375,0.010986328125
2021-09-19 10:49:17.810765,-0.18212890625,0.12109375,0.9755859375,7.0697021484375,10.4644775390625,0.010986328125
2021-09-19 10:49:17.820791,-0.1826171875,0.1201171875,0.97265625,7.0697021484375,10.4644775390625,0.010986328125
2021-09-19 10:49:17.830685,-0.1806640625,0.12109375,0.97509765625,7.0697021484375,10.4644775390625,0.010986328125
2021-09-19 10:49:17.840566,-0.18212890625,0.12060546875,0.974609375,7.0697021484375,10.4644775390625,0.010986328125
2021-09-19 10:49:17.850485,-0.1806640625,0.12060546875,0.97314453125,7.0697021484375,10.4644775390625,0.010986328125
2021-09-19 10:49:17.860652,-0.17822265625,0.12060546875,0.97412109375,7.0697021484375,10.458984375,0.010986328125
2021-09-19 10:49:17.870539,-0.17919921875,0.11962890625,0.97509765625,7.0697021484375,10.458984375,0.010986328125
2021-09-19 10:49:17.880464,-0.18017578125,0.1220703125,0.97265625,7.0697021484375,10.458984375,0.010986328125
2021-09-19 10:49:17.890537,-0.18115234375,0.12255859375,0.970703125,7.0697021484375,10.458984375,0.010986328125
2021-09-19 10:49:17.900603,-0.1826171875,0.1201171875,0.97412109375,7.0697021484375,10.458984375,0.010986328125
2021-09-19 10:49:17.910379,-0.1826171875,0.12158203125,0.97509765625,7.0697021484375,10.458984375,0.010986328125
2021-09-19 10:49:17.920287,-0.18212890625,0.12158203125,0.97314453125,7.0751953125,10.458984375,0.010986328125
2021-09-19 10:49:17.930372,-0.181640625,0.1201171875,0.9755859375,7.0697021484375,10.458984375,0.010986328125
2021-09-19 10:49:17.940257,-0.1826171875,0.119140625,0.974609375,7.0697021484375,10.4644775390625,0.010986328125
2021-09-19 10:49:17.950297,-0.181640625,0.1201171875,0.9736328125,7.0697021484375,10.4644775390625,0.010986328125
2021-09-19 10:49:17.960318,-0.18115234375,0.1201171875,0.97216796875,7.0697021484375,10.4644775390625,0.010986328125
2021-09-19 10:49:17.970204,-0.18017578125,0.12158203125,0.9736328125,7.0697021484375,10.4644775390625,0.010986328125
2021-09-19 10:49:17.980116,-0.1796875,0.1201171875,0.97607421875,7.0697021484375,10.458984375,0.010986328125
2021-09-19 10:49:17.989976,-0.1806640625,0.12109375,0.97607421875,7.0697021484375,10.458984375,0.010986328125
2021-09-19 10:49:18.000159,-0.18115234375,0.11962890625,0.97412109375,7.0697021484375,10.458984375,0.010986328125
2021-09-19 10:49:18.010031,-0.1806640625,0.1201171875,0.97265625,7.0697021484375,10.458984375,0.010986328125
2021-09-19 10:49:18.019958,-0.1796875,0.1201171875,0.9755859375,7.0697021484375,10.458984375,0.010986328125
2021-09-19 10:49:18.030020,-0.18017578125,0.12158203125,0.97265625,7.0697021484375,10.458984375,0.010986328125
2021-09-19 10:49:18.040081,-0.1806640625,0.12060546875,0.9716796875,7.0697021484375,10.458984375,0.010986328125
2021-09-19 10:49:18.049934,-0.18212890625,0.12109375,0.97216796875,7.0697021484375,10.458984375,0.010986328125
2021-09-19 10:49:18.059966,-0.18212890625,0.12255859375,0.974609375,7.0697021484375,10.458984375,0.010986328125
2021-09-19 10:49:18.069832,-0.18115234375,0.12158203125,0.9736328125,7.0697021484375,10.458984375,0.010986328125
2021-09-19 10:49:18.079781,-0.181640625,0.12255859375,0.974609375,7.0697021484375,10.458984375,0.010986328125
2021-09-19 10:49:18.089858,-0.181640625,0.12109375,0.970703125,7.0697021484375,10.458984375,0.010986328125
2021-09-19 10:49:18.099651,-0.1806640625,0.12158203125,0.9716796875,7.0751953125,10.458984375,0.010986328125
2021-09-19 10:49:18.109753,-0.18017578125,0.12109375,0.974609375,7.0751953125,10.458984375,0.010986328125
2021-09-19 10:49:18.119611,-0.18212890625,0.11865234375,0.974609375,7.0697021484375,10.458984375,0.010986328125
2021-09-19 10:49:18.129563,-0.18115234375,0.11962890625,0.97314453125,7.0697021484375,10.458984375,0.010986328125
2021-09-19 10:49:18.139723,-0.18115234375,0.12109375,0.9755859375,7.0697021484375,10.458984375,0.010986328125
2021-09-19 10:49:18.149563,-0.1826171875,0.12060546875,0.97216796875,7.0697021484375,10.458984375,0.010986328125
2021-09-19 10:49:18.159458,-0.1826171875,0.12060546875,0.97314453125,7.0697021484375,10.4644775390625,0.010986328125
2021-09-19 10:49:18.169370,-0.181640625,0.1201171875,0.9716796875,7.0697021484375,10.4644775390625,0.010986328125
2021-09-19 10:49:18.179434,-0.18115234375,0.12109375,0.9716796875,7.0697021484375,10.4644775390625,0.010986328125
2021-09-19 10:49:18.189578,-0.1826171875,0.12109375,0.97607421875,7.0697021484375,10.4644775390625,0.010986328125
2021-09-19 10:49:18.199423,-0.1826171875,0.12109375,0.9736328125,7.0697021484375,10.4644775390625,0.010986328125
2021-09-19 10:49:18.209497,-0.181640625,0.1220703125,0.97607421875,7.0697021484375,10.4644775390625,0.010986328125
2021-09-19 10:49:18.219333,-0.18115234375,0.12158203125,0.97265625,7.0697021484375,10.4644775390625,0.010986328125
2021-09-19 10:49:18.229259,-0.181640625,0.12255859375,0.970703125,7.0751953125,10.4644775390625,0.010986328125
2021-09-19 10:49:18.239115,-0.1806640625,0.12158203125,0.97314453125,7.0751953125,10.4644775390625,0.010986328125
2021-09-19 10:49:18.249344,-0.18017578125,0.12060546875,0.9755859375,7.0751953125,10.4644775390625,0.010986328125
2021-09-19 10:49:18.259168,-0.1796875,0.11962890625,0.97705078125,7.0697021484375,10.4644775390625,0.010986328125
2021-09-19 10:49:18.270110,-0.18017578125,0.119140625,0.97607421875,7.0697021484375,10.4644775390625,0.010986328125
2021-09-19 10:49:18.279149,-0.181640625,0.1220703125,0.9736328125,7.0697021484375,10.4644775390625,0.010986328125
2021-09-19 10:49:18.289073,-0.1806640625,0.12109375,0.97314453125,7.0697021484375,10.4644775390625,0.010986328125
2021-09-19 10:49:18.299020,-0.1796875,0.12109375,0.974609375,7.0697021484375,10.458984375,0.010986328125
2021-09-19 10:49:18.308888,-0.18115234375,0.1201171875,0.97314453125,7.0697021484375,10.458984375,0.010986328125
2021-09-19 10:49:18.318993,-0.18115234375,0.1201171875,0.97509765625,7.0697021484375,10.458984375,0.010986328125
2021-09-19 10:49:18.328882,-0.181640625,0.1220703125,0.97509765625,7.0697021484375,10.458984375,0.010986328125
2021-09-19 10:49:18.338969,-0.181640625,0.12158203125,0.974609375,7.0697021484375,10.458984375,0.010986328125
2021-09-19 10:49:18.348963,-0.181640625,0.1220703125,0.9736328125,7.0751953125,10.458984375,0.010986328125
2021-09-19 10:49:18.358882,-0.18115234375,0.119140625,0.97705078125,7.0697021484375,10.458984375,0.010986328125
2021-09-19 10:49:18.368772,-0.17919921875,0.1171875,0.97265625,7.0697021484375,10.458984375,0.010986328125
2021-09-19 10:49:18.378638,-0.1796875,0.11962890625,0.97216796875,7.0697021484375,10.458984375,0.010986328125
2021-09-19 10:49:18.388846,-0.18310546875,0.12060546875,0.97412109375,7.0697021484375,10.458984375,0.010986328125
2021-09-19 10:49:18.398745,-0.181640625,0.119140625,0.974609375,7.0697021484375,10.458984375,0.010986328125
2021-09-19 10:49:18.408604,-0.18017578125,0.12158203125,0.970703125,7.0697021484375,10.458984375,0.010986328125
2021-09-19 10:49:18.418523,-0.18017578125,0.12158203125,0.9716796875,7.0697021484375,10.458984375,0.010986328125
2021-09-19 10:49:18.428584,-0.1806640625,0.12109375,0.97314453125,7.0697021484375,10.458984375,0.010986328125
2021-09-19 10:49:18.438638,-0.1796875,0.11962890625,0.97412109375,7.0697021484375,10.458984375,0.010986328125
2021-09-19 10:49:18.448491,-0.181640625,0.12060546875,0.97216796875,7.0697021484375,10.458984375,0.010986328125
2021-09-19 10:49:18.458527,-0.18310546875,0.11962890625,0.97119140625,7.0697021484375,10.458984375,0.010986328125
2021-09-19 10:49:18.468465,-0.1826171875,0.1201171875,0.97119140625,7.0697021484375,10.4644775390625,0.010986328125
2021-09-19 10:49:18.478346,-0.18212890625,0.1220703125,0.9736328125,7.0697021484375,10.4644775390625,0.010986328125
2021-09-19 10:49:18.488394,-0.1826171875,0.12255859375,0.97412109375,7.0697021484375,10.4644775390625,0.010986328125
2021-09-19 10:49:18.498461,-0.1806640625,0.1201171875,0.97265625,7.0697021484375,10.4644775390625,0.010986328125
2021-09-19 10:49:18.508326,-0.1796875,0.12060546875,0.97412109375,7.0697021484375,10.4644775390625,0.010986328125
2021-09-19 10:49:18.518191,-0.18017578125,0.12109375,0.9736328125,7.0697021484375,10.458984375,0.010986328125
2021-09-19 10:49:18.528137,-0.181640625,0.12158203125,0.974609375,7.0697021484375,10.4644775390625,0.010986328125
2021-09-19 10:49:18.538342,-0.181640625,0.12060546875,0.9736328125,7.0697021484375,10.4644775390625,0.010986328125
2021-09-19 10:49:18.548244,-0.1826171875,0.119140625,0.97265625,7.0697021484375,10.4644775390625,0.010986328125
2021-09-19 10:49:18.558135,-0.181640625,0.1220703125,0.97265625,7.0697021484375,10.4644775390625,0.010986328125
2021-09-19 10:49:18.567999,-0.1826171875,0.1220703125,0.97265625,7.0697021484375,10.4644775390625,0.010986328125
2021-09-19 10:49:18.578098,-0.1806640625,0.1201171875,0.97314453125,7.0697021484375,10.4644775390625,0.010986328125
2021-09-19 10:49:18.588103,-0.18115234375,0.11962890625,0.9736328125,7.0697021484375,10.4644775390625,0.010986328125
2021-09-19 10:49:18.597946,-0.18212890625,0.11767578125,0.974609375,7.0697021484375,10.4644775390625,0.010986328125
2021-09-19 10:49:18.608037,-0.18212890625,0.12109375,0.97265625,7.0697021484375,10.4644775390625,0.010986328125
2021-09-19 10:49:18.617927,-0.18115234375,0.12109375,0.97314453125,7.0697021484375,10.4644775390625,0.010986328125
2021-09-19 10:49:18.627812,-0.18212890625,0.1220703125,0.97509765625,7.0697021484375,10.4644775390625,0.010986328125
2021-09-19 10:49:18.637838,-0.181640625,0.1220703125,0.97265625,7.0697021484375,10.4644775390625,0.010986328125
2021-09-19 10:49:18.647868,-0.1826171875,0.12255859375,0.97216796875,7.0697021484375,10.4644775390625,0.010986328125
2021-09-19 10:49:18.657795,-0.18115234375,0.1220703125,0.97412109375,7.0697021484375,10.4644775390625,0.010986328125
2021-09-19 10:49:18.667696,-0.18017578125,0.1220703125,0.974609375,7.0697021484375,10.4644775390625,0.010986328125
2021-09-19 10:49:18.677912,-0.18017578125,0.1220703125,0.974609375,7.0751953125,10.4644775390625,0.010986328125
2021-09-19 10:49:18.687761,-0.18115234375,0.12158203125,0.97509765625,7.0751953125,10.4644775390625,0.010986328125
2021-09-19 10:49:18.697620,-0.1826171875,0.1201171875,0.9716796875,7.0751953125,10.4644775390625,0.010986328125
2021-09-19 10:49:18.707545,-0.18115234375,0.12158203125,0.9755859375,7.0751953125,10.4644775390625,0.010986328125
2021-09-19 10:49:18.717629,-0.1826171875,0.12158203125,0.9736328125,7.0751953125,10.4644775390625,0.010986328125
2021-09-19 10:49:18.727644,-0.18115234375,0.12158203125,0.97314453125,7.0751953125,10.4644775390625,0.010986328125
2021-09-19 10:49:18.737465,-0.1826171875,0.1201171875,0.97412109375,7.0751953125,10.4644775390625,0.010986328125
2021-09-19 10:49:18.747549,-0.181640625,0.12109375,0.9716796875,7.0751953125,10.469970703125,0.010986328125
2021-09-19 10:49:18.757464,-0.18359375,0.12060546875,0.974609375,7.0751953125,10.469970703125,0.010986328125
2021-09-19 10:49:18.768431,-0.1796875,0.1201171875,0.9736328125,7.0751953125,10.469970703125,0.010986328125
2021-09-19 10:49:18.777318,-0.18212890625,0.1201171875,0.974609375,7.0751953125,10.469970703125,0.010986328125
2021-09-19 10:49:18.787429,-0.18115234375,0.1220703125,0.97265625,7.0751953125,10.469970703125,0.010986328125
2021-09-19 10:49:18.797319,-0.1806640625,0.12060546875,0.97216796875,7.0751953125,10.469970703125,0.010986328125
2021-09-19 10:49:18.807191,-0.181640625,0.12109375,0.974609375,7.0751953125,10.469970703125,0.010986328125
2021-09-19 10:49:18.817285,-0.1826171875,0.1220703125,0.97705078125,7.0751953125,10.469970703125,0.010986328125
2021-09-19 10:49:18.827295,-0.18115234375,0.12060546875,0.97412109375,7.0751953125,10.469970703125,0.010986328125
2021-09-19 10:49:18.837154,-0.18115234375,0.12109375,0.9736328125,7.0751953125,10.469970703125,0.010986328125
2021-09-19 10:49:18.847030,-0.181640625,0.1220703125,0.974609375,7.0751953125,10.469970703125,0.010986328125
2021-09-19 10:49:18.857123,-0.1826171875,0.12060546875,0.97314453125,7.0751953125,10.469970703125,0.010986328125
2021-09-19 10:49:18.867270,-0.18310546875,0.12109375,0.97216796875,7.0751953125,10.469970703125,0.010986328125
2021-09-19 10:49:18.877052,-0.18212890625,0.12109375,0.97509765625,7.0751953125,10.469970703125,0.010986328125
2021-09-19 10:49:18.887093,-0.1796875,0.119140625,0.97314453125,7.0751953125,10.469970703125,0.010986328125
2021-09-19 10:49:18.897014,-0.18212890625,0.12158203125,0.97216796875,7.0751953125,10.469970703125,0.010986328125
2021-09-19 10:49:18.906915,-0.181640625,0.12109375,0.97509765625,7.0751953125,10.469970703125,0.010986328125
2021-09-19 10:49:18.916962,-0.18212890625,0.119140625,0.9755859375,7.0751953125,10.469970703125,0.010986328125
2021-09-19 10:49:18.926953,-0.18017578125,0.12109375,0.9736328125,7.0751953125,10.469970703125,0.010986328125
2021-09-19 10:49:18.936823,-0.181640625,0.12109375,0.97705078125,7.0751953125,10.469970703125,0.010986328125
2021-09-19 10:49:18.946752,-0.181640625,0.12060546875,0.9736328125,7.0751953125,10.469970703125,0.010986328125
2021-09-19 10:49:18.956852,-0.18017578125,0.12353515625,0.97509765625,7.0751953125,10.469970703125,0.010986328125
2021-09-19 10:49:18.966840,-0.18310546875,0.12158203125,0.97705078125,7.0751953125,10.469970703125,0.010986328125
2021-09-19 10:49:18.976677,-0.18212890625,0.123046875,0.9736328125,7.0751953125,10.469970703125,0.010986328125
2021-09-19 10:49:18.986565,-0.18115234375,0.1220703125,0.97021484375,7.0751953125,10.469970703125,0.010986328125
2021-09-19 10:49:18.996657,-0.18310546875,0.1201171875,0.97314453125,7.0751953125,10.469970703125,0.010986328125
2021-09-19 10:49:19.006674,-0.18212890625,0.11962890625,0.9736328125,7.0751953125,10.469970703125,0.010986328125
2021-09-19 10:49:19.016559,-0.181640625,0.12060546875,0.9736328125,7.0751953125,10.469970703125,0.010986328125
2021-09-19 10:49:19.026468,-0.18212890625,0.1220703125,0.97314453125,7.0751953125,10.4754638671875,0.010986328125
2021-09-19 10:49:19.036516,-0.181640625,0.1220703125,0.9736328125,7.0751953125,10.4754638671875,0.010986328125
2021-09-19 10:49:19.046471,-0.1806640625,0.1220703125,0.974609375,7.0751953125,10.469970703125,0.010986328125
2021-09-19 10:49:19.056481,-0.1796875,0.1220703125,0.97265625,7.0806884765625,10.469970703125,0.010986328125
2021-09-19 10:49:19.066479,-0.1796875,0.12255859375,0.97314453125,7.0806884765625,10.469970703125,0.010986328125
2021-09-19 10:49:19.076340,-0.1806640625,0.12109375,0.97509765625,7.0806884765625,10.469970703125,0.010986328125
2021-09-19 10:49:19.086247,-0.1796875,0.1181640625,0.97216796875,7.0751953125,10.469970703125,0.010986328125
2021-09-19 10:49:19.096162,-0.1806640625,0.119140625,0.97119140625,7.0751953125,10.469970703125,0.010986328125
2021-09-19 10:49:19.106368,-0.1796875,0.11962890625,0.97119140625,7.0751953125,10.469970703125,0.010986328125
2021-09-19 10:49:19.116198,-0.181640625,0.1201171875,0.97021484375,7.0751953125,10.469970703125,0.010986328125
2021-09-19 10:49:19.126123,-0.18115234375,0.1201171875,0.97216796875,7.0751953125,10.469970703125,0.010986328125
2021-09-19 10:49:19.136222,-0.1806640625,0.12158203125,0.97119140625,7.0751953125,10.469970703125,0.010986328125
2021-09-19 10:49:19.146127,-0.18115234375,0.12158203125,0.97314453125,7.0751953125,10.469970703125,0.010986328125
2021-09-19 10:49:19.156117,-0.18212890625,0.12109375,0.97216796875,7.0751953125,10.469970703125,0.010986328125
2021-09-19 10:49:19.165975,-0.18115234375,0.119140625,0.97265625,7.0751953125,10.469970703125,0.010986328125
2021-09-19 10:49:19.176073,-0.181640625,0.1201171875,0.9716796875,7.0751953125,10.469970703125,0.010986328125
2021-09-19 10:49:19.185962,-0.1806640625,0.1181640625,0.9716796875,7.0751953125,10.469970703125,0.010986328125
2021-09-19 10:49:19.196082,-0.18115234375,0.11962890625,0.97265625,7.0751953125,10.469970703125,0.010986328125
2021-09-19 10:49:19.206039,-0.18017578125,0.12060546875,0.97509765625,7.0751953125,10.469970703125,0.010986328125
2021-09-19 10:49:19.215924,-0.18212890625,0.12158203125,0.974609375,7.0751953125,10.469970703125,0.010986328125
2021-09-19 10:49:19.225827,-0.1806640625,0.1201171875,0.9697265625,7.0751953125,10.469970703125,0.010986328125
2021-09-19 10:49:19.235722,-0.1806640625,0.1201171875,0.97021484375,7.0751953125,10.469970703125,0.010986328125
2021-09-19 10:49:19.245935,-0.18017578125,0.123046875,0.9765625,7.0751953125,10.469970703125,0.010986328125
2021-09-19 10:49:19.255766,-0.181640625,0.1220703125,0.97509765625,7.0751953125,10.469970703125,0.010986328125
2021-09-19 10:49:19.266700,-0.1826171875,0.12255859375,0.9716796875,7.0751953125,10.469970703125,0.010986328125
2021-09-19 10:49:19.275633,-0.18017578125,0.1220703125,0.97119140625,7.0751953125,10.469970703125,0.010986328125
2021-09-19 10:49:19.285755,-0.1806640625,0.1201171875,0.97265625,7.0751953125,10.469970703125,0.010986328125
2021-09-19 10:49:19.295653,-0.17822265625,0.12109375,0.9716796875,7.0751953125,10.469970703125,0.010986328125
2021-09-19 10:49:19.305529,-0.1806640625,0.12060546875,0.97119140625,7.0751953125,10.469970703125,0.010986328125
2021-09-19 10:49:19.315463,-0.1806640625,0.1220703125,0.974609375,7.0751953125,10.4644775390625,0.010986328125
2021-09-19 10:49:19.325547,-0.1806640625,0.12255859375,0.97509765625,7.0806884765625,10.4644775390625,0.010986328125
2021-09-19 10:49:19.335544,-0.18115234375,0.12158203125,0.97265625,7.0806884765625,10.4644775390625,0.010986328125
2021-09-19 10:49:19.345395,-0.18017578125,0.1201171875,0.97216796875,7.0806884765625,10.4644775390625,0.010986328125
2021-09-19 10:49:19.355490,-0.1806640625,0.12060546875,0.9716796875,7.0806884765625,10.4644775390625,0.010986328125
2021-09-19 10:49:19.365391,-0.18359375,0.12060546875,0.97509765625,7.0751953125,10.4644775390625,0.010986328125
2021-09-19 10:49:19.375304,-0.18212890625,0.12109375,0.9716796875,7.0751953125,10.469970703125,0.010986328125
2021-09-19 10:49:19.385312,-0.1806640625,0.1220703125,0.9736328125,7.0806884765625,10.469970703125,0.010986328125
2021-09-19 10:49:19.395362,-0.18115234375,0.11962890625,0.97412109375,7.0751953125,10.469970703125,0.010986328125
2021-09-19 10:49:19.405252,-0.1787109375,0.12109375,0.97216796875,7.0806884765625,10.4644775390625,0.010986328125
2021-09-19 10:49:19.415155,-0.181640625,0.12255859375,0.97216796875,7.0806884765625,10.4644775390625,0.010986328125
2021-09-19 10:49:19.425141,-0.18212890625,0.12109375,0.97607421875,7.0806884765625,10.4644775390625,0.010986328125
2021-09-19 10:49:19.435255,-0.1806640625,0.12060546875,0.9736328125,7.0806884765625,10.4644775390625,0.010986328125
2021-09-19 10:49:19.445118,-0.18017578125,0.11865234375,0.9755859375,7.0751953125,10.4644775390625,0.010986328125
2021-09-19 10:49:19.455045,-0.181640625,0.119140625,0.97216796875,7.0751953125,10.4644775390625,0.010986328125
2021-09-19 10:49:19.465099,-0.181640625,0.1201171875,0.97314453125,7.0751953125,10.4644775390625,0.010986328125
2021-09-19 10:49:19.475161,-0.18310546875,0.12109375,0.97412109375,7.0751953125,10.4644775390625,0.010986328125
2021-09-19 10:49:19.485055,-0.1826171875,0.1220703125,0.97119140625,7.0751953125,10.469970703125,0.010986328125
2021-09-19 10:49:19.494914,-0.18212890625,0.12060546875,0.97412109375,7.0751953125,10.469970703125,0.010986328125
2021-09-19 10:49:19.504815,-0.181640625,0.1201171875,0.97509765625,7.0751953125,10.469970703125,0.010986328125
2021-09-19 10:49:19.514844,-0.181640625,0.1220703125,0.9716796875,7.0751953125,10.469970703125,0.010986328125
2021-09-19 10:49:19.524921,-0.181640625,0.123046875,0.974609375,7.0806884765625,10.469970703125,0.010986328125
2021-09-19 10:49:19.534739,-0.18115234375,0.1220703125,0.97802734375,7.0806884765625,10.469970703125,0.010986328125
2021-09-19 10:49:19.544835,-0.18212890625,0.1220703125,0.974609375,7.0806884765625,10.469970703125,0.010986328125
2021-09-19 10:49:19.554736,-0.18310546875,0.12060546875,0.97412109375,7.0806884765625,10.469970703125,0.010986328125
2021-09-19 10:49:19.564647,-0.181640625,0.12109375,0.97314453125,7.0806884765625,10.469970703125,0.010986328125
2021-09-19 10:49:19.574663,-0.181640625,0.12158203125,0.97314453125,7.0806884765625,10.469970703125,0.010986328125
2021-09-19 10:49:19.584697,-0.1826171875,0.12060546875,0.97265625,7.0806884765625,10.469970703125,0.010986328125
2021-09-19 10:49:19.594603,-0.1806640625,0.12060546875,0.97119140625,7.0806884765625,10.469970703125,0.010986328125
2021-09-19 10:49:19.604518,-0.1806640625,0.12158203125,0.9716796875,7.0806884765625,10.469970703125,0.010986328125
2021-09-19 10:49:19.614519,-0.18115234375,0.1201171875,0.9736328125,7.0806884765625,10.469970703125,0.010986328125
2021-09-19 10:49:19.624576,-0.18115234375,0.12158203125,0.97412109375,7.0806884765625,10.469970703125,0.010986328125
2021-09-19 10:49:19.634467,-0.18115234375,0.12158203125,0.97119140625,7.0806884765625,10.469970703125,0.010986328125
2021-09-19 10:49:19.644392,-0.18115234375,0.1220703125,0.9736328125,7.0806884765625,10.469970703125,0.010986328125
2021-09-19 10:49:19.654482,-0.18212890625,0.12109375,0.974609375,7.0806884765625,10.469970703125,0.010986328125
2021-09-19 10:49:19.664511,-0.181640625,0.12158203125,0.9736328125,7.0806884765625,10.469970703125,0.010986328125
2021-09-19 10:49:19.674340,-0.181640625,0.12060546875,0.974609375,7.0806884765625,10.469970703125,0.010986328125
2021-09-19 10:49:19.684185,-0.1796875,0.1220703125,0.97705078125,7.0806884765625,10.469970703125,0.010986328125
2021-09-19 10:49:19.694282,-0.1806640625,0.12158203125,0.9765625,7.0806884765625,10.469970703125,0.010986328125
2021-09-19 10:49:19.704192,-0.18017578125,0.12109375,0.97216796875,7.0806884765625,10.469970703125,0.010986328125
2021-09-19 10:49:19.714242,-0.18115234375,0.1220703125,0.9716796875,7.0806884765625,10.469970703125,0.010986328125
2021-09-19 10:49:19.724267,-0.18017578125,0.12109375,0.9736328125,7.0806884765625,10.469970703125,0.010986328125
2021-09-19 10:49:19.734157,-0.1796875,0.12109375,0.97265625,7.0806884765625,10.469970703125,0.010986328125
2021-09-19 10:49:19.744053,-0.18212890625,0.12158203125,0.97265625,7.0806884765625,10.469970703125,0.010986328125
2021-09-19 10:49:19.753940,-0.18212890625,0.12255859375,0.97265625,7.086181640625,10.469970703125,0.010986328125
2021-09-19 10:49:19.764953,-0.18212890625,0.1220703125,0.974609375,7.086181640625,10.469970703125,0.010986328125
2021-09-19 10:49:19.773986,-0.1826171875,0.1201171875,0.97509765625,7.086181640625,10.469970703125,0.010986328125
2021-09-19 10:49:19.783889,-0.1826171875,0.12255859375,0.97412109375,7.086181640625,10.469970703125,0.010986328125
2021-09-19 10:49:19.793790,-0.1806640625,0.12109375,0.97265625,7.086181640625,10.469970703125,0.010986328125
2021-09-19 10:49:19.803943,-0.18212890625,0.12109375,0.970703125,7.086181640625,10.469970703125,0.010986328125
2021-09-19 10:49:19.813882,-0.181640625,0.12255859375,0.9736328125,7.086181640625,10.469970703125,0.010986328125
2021-09-19 10:49:19.823732,-0.18115234375,0.12158203125,0.974609375,7.086181640625,10.469970703125,0.010986328125
2021-09-19 10:49:19.833806,-0.18115234375,0.12060546875,0.974609375,7.086181640625,10.469970703125,0.010986328125
2021-09-19 10:49:19.843707,-0.181640625,0.1220703125,0.97216796875,7.086181640625,10.469970703125,0.010986328125
2021-09-19 10:49:19.853799,-0.181640625,0.12060546875,0.9736328125,7.086181640625,10.469970703125,0.010986328125
2021-09-19 10:49:19.863628,-0.18115234375,0.1201171875,0.97412109375,7.086181640625,10.469970703125,0.010986328125
2021-09-19 10:49:19.873664,-0.18212890625,0.12158203125,0.97607421875,7.086181640625,10.469970703125,0.010986328125
2021-09-19 10:49:19.883611,-0.18115234375,0.12158203125,0.97412109375,7.086181640625,10.469970703125,0.010986328125
2021-09-19 10:49:19.893464,-0.18212890625,0.12060546875,0.9755859375,7.086181640625,10.469970703125,0.010986328125
2021-09-19 10:49:19.903732,-0.17919921875,0.12158203125,0.97607421875,7.086181640625,10.469970703125,0.010986328125
2021-09-19 10:49:19.913553,-0.181640625,0.12158203125,0.9736328125,7.086181640625,10.469970703125,0.010986328125
2021-09-19 10:49:19.923485,-0.1806640625,0.1201171875,0.97021484375,7.086181640625,10.469970703125,0.010986328125
2021-09-19 10:49:19.933345,-0.1796875,0.11962890625,0.97412109375,7.086181640625,10.469970703125,0.010986328125
2021-09-19 10:49:19.943427,-0.181640625,0.11865234375,0.97509765625,7.0806884765625,10.469970703125,0.010986328125
2021-09-19 10:49:19.953415,-0.18212890625,0.1201171875,0.97216796875,7.0806884765625,10.469970703125,0.010986328125
2021-09-19 10:49:19.963295,-0.1806640625,0.1220703125,0.97509765625,7.0806884765625,10.469970703125,0.010986328125
2021-09-19 10:49:19.973200,-0.18017578125,0.12109375,0.9736328125,7.0806884765625,10.469970703125,0.010986328125
2021-09-19 10:49:19.983298,-0.1806640625,0.12158203125,0.97265625,7.086181640625,10.469970703125,0.010986328125
2021-09-19 10:49:19.993232,-0.18115234375,0.1220703125,0.9736328125,7.086181640625,10.469970703125,0.010986328125
2021-09-19 10:49:20.003199,-0.1806640625,0.12060546875,0.97314453125,7.086181640625,10.469970703125,0.010986328125
2021-09-19 10:49:20.013061,-0.1806640625,0.11962890625,0.97509765625,7.0806884765625,10.469970703125,0.010986328125
2021-09-19 10:49:20.023155,-0.18212890625,0.12158203125,0.9755859375,7.0806884765625,10.469970703125,0.010986328125
2021-09-19 10:49:20.033037,-0.181640625,0.119140625,0.974609375,7.0806884765625,10.469970703125,0.010986328125
2021-09-19 10:49:20.043125,-0.18408203125,0.12109375,0.97412109375,7.0806884765625,10.469970703125,0.010986328125
2021-09-19 10:49:20.053136,-0.181640625,0.1220703125,0.974609375,7.0806884765625,10.469970703125,0.010986328125
2021-09-19 10:49:20.063003,-0.1806640625,0.12353515625,0.97509765625,7.086181640625,10.469970703125,0.010986328125
2021-09-19 10:49:20.072910,-0.181640625,0.123046875,0.9736328125,7.086181640625,10.469970703125,0.010986328125
2021-09-19 10:49:20.082974,-0.18115234375,0.1220703125,0.97265625,7.086181640625,10.469970703125,0.010986328125
2021-09-19 10:49:20.093028,-0.18212890625,0.1201171875,0.9736328125,7.086181640625,10.469970703125,0.010986328125
2021-09-19 10:49:20.102872,-0.1806640625,0.12109375,0.9736328125,7.086181640625,10.469970703125,0.010986328125
2021-09-19 10:49:20.112778,-0.18017578125,0.12255859375,0.9736328125,7.086181640625,10.469970703125,0.010986328125
2021-09-19 10:49:20.122821,-0.1806640625,0.1220703125,0.97021484375,7.086181640625,10.469970703125,0.010986328125
2021-09-19 10:49:20.132750,-0.181640625,0.12158203125,0.97265625,7.086181640625,10.469970703125,0.010986328125
2021-09-19 10:49:20.142734,-0.18212890625,0.12158203125,0.9755859375,7.086181640625,10.469970703125,0.010986328125
2021-09-19 10:49:20.152634,-0.18212890625,0.12109375,0.97509765625,7.086181640625,10.469970703125,0.010986328125
2021-09-19 10:49:20.162664,-0.18115234375,0.11962890625,0.974609375,7.086181640625,10.469970703125,0.010986328125
2021-09-19 10:49:20.172625,-0.18017578125,0.12109375,0.97314453125,7.086181640625,10.469970703125,0.010986328125
2021-09-19 10:49:20.182536,-0.18115234375,0.12109375,0.97509765625,7.086181640625,10.469970703125,0.010986328125
2021-09-19 10:49:20.192691,-0.18115234375,0.12109375,0.97314453125,7.086181640625,10.469970703125,0.010986328125
2021-09-19 10:49:20.202548,-0.1806640625,0.12158203125,0.974609375,7.086181640625,10.469970703125,0.010986328125
2021-09-19 10:49:20.212456,-0.1806640625,0.1201171875,0.974609375,7.086181640625,10.469970703125,0.010986328125
2021-09-19 10:49:20.222396,-0.1796875,0.12109375,0.97265625,7.086181640625,10.4644775390625,0.010986328125
2021-09-19 10:49:20.232573,-0.1806640625,0.12158203125,0.9736328125,7.086181640625,10.4644775390625,0.010986328125
2021-09-19 10:49:20.242492,-0.18017578125,0.12109375,0.97119140625,7.086181640625,10.4644775390625,0.010986328125
2021-09-19 10:49:20.252336,-0.18212890625,0.123046875,0.9765625,7.086181640625,10.4644775390625,0.010986328125
2021-09-19 10:49:20.263261,-0.18115234375,0.12060546875,0.9736328125,7.086181640625,10.4644775390625,0.010986328125
2021-09-19 10:49:20.272178,-0.18017578125,0.1201171875,0.9736328125,7.086181640625,10.4644775390625,0.010986328125
2021-09-19 10:49:20.282317,-0.18017578125,0.1220703125,0.97314453125,7.086181640625,10.4644775390625,0.010986328125
2021-09-19 10:49:20.292228,-0.18115234375,0.12109375,0.974609375,7.086181640625,10.4644775390625,0.010986328125
2021-09-19 10:49:20.302120,-0.1826171875,0.12109375,0.9716796875,7.086181640625,10.4644775390625,0.010986328125
2021-09-19 10:49:20.312194,-0.1806640625,0.12158203125,0.97216796875,7.086181640625,10.4644775390625,0.010986328125
2021-09-19 10:49:20.322111,-0.1806640625,0.1220703125,0.9736328125,7.086181640625,10.4644775390625,0.010986328125
2021-09-19 10:49:20.332073,-0.18017578125,0.12060546875,0.97412109375,7.086181640625,10.4644775390625,0.010986328125
2021-09-19 10:49:20.341934,-0.18017578125,0.12109375,0.97119140625,7.086181640625,10.4644775390625,0.010986328125
2021-09-19 10:49:20.352071,-0.18115234375,0.12158203125,0.97412109375,7.086181640625,10.4644775390625,0.010986328125
2021-09-19 10:49:20.362003,-0.181640625,0.12255859375,0.9697265625,7.0916748046875,10.4644775390625,0.010986328125
2021-09-19 10:49:20.372027,-0.18017578125,0.12109375,0.9716796875,7.0916748046875,10.4644775390625,0.010986328125
2021-09-19 10:49:20.382023,-0.18115234375,0.12109375,0.9736328125,7.0916748046875,10.4644775390625,0.010986328125
2021-09-19 10:49:20.391896,-0.18212890625,0.1220703125,0.97216796875,7.0916748046875,10.4644775390625,0.010986328125
2021-09-19 10:49:20.401822,-0.18017578125,0.12109375,0.97216796875,7.0916748046875,10.4644775390625,0.010986328125
2021-09-19 10:49:20.411708,-0.1806640625,0.12060546875,0.970703125,7.0916748046875,10.4644775390625,0.010986328125
2021-09-19 10:49:20.421943,-0.18115234375,0.11962890625,0.9755859375,7.0916748046875,10.4644775390625,0.010986328125
2021-09-19 10:49:20.431807,-0.1806640625,0.12158203125,0.9755859375,7.0916748046875,10.4644775390625,0.010986328125
2021-09-19 10:49:20.441713,-0.18115234375,0.119140625,0.97265625,7.086181640625,10.4644775390625,0.010986328125
2021-09-19 10:49:20.451601,-0.1806640625,0.11962890625,0.97265625,7.086181640625,10.4644775390625,0.010986328125
2021-09-19 10:49:20.461649,-0.181640625,0.12109375,0.97314453125,7.086181640625,10.4644775390625,0.010986328125
2021-09-19 10:49:20.471690,-0.1826171875,0.12109375,0.97314453125,7.086181640625,10.4644775390625,0.010986328125
2021-09-19 10:49:20.481498,-0.18212890625,0.12158203125,0.97216796875,7.086181640625,10.4644775390625,0.010986328125
2021-09-19 10:49:20.491525,-0.18115234375,0.12060546875,0.97119140625,7.086181640625,10.4644775390625,0.010986328125
2021-09-19 10:49:20.501572,-0.18115234375,0.12060546875,0.9716796875,7.086181640625,10.4644775390625,0.010986328125
2021-09-19 10:49:20.511448,-0.181640625,0.12060546875,0.97314453125,7.086181640625,10.4644775390625,0.010986328125
2021-09-19 10:49:20.521462,-0.181640625,0.1220703125,0.97216796875,7.086181640625,10.4644775390625,0.010986328125
2021-09-19 10:49:20.531503,-0.1806640625,0.1220703125,0.97412109375,7.086181640625,10.4644775390625,0.010986328125
2021-09-19 10:49:20.541400,-0.1806640625,0.1220703125,0.97314453125,7.0916748046875,10.4644775390625,0.010986328125
2021-09-19 10:49:20.551326,-0.1826171875,0.12109375,0.97216796875,7.0916748046875,10.4644775390625,0.010986328125
2021-09-19 10:49:20.561210,-0.181640625,0.11962890625,0.970703125,7.086181640625,10.469970703125,0.010986328125
2021-09-19 10:49:20.571375,-0.18310546875,0.1220703125,0.97314453125,7.0916748046875,10.469970703125,0.010986328125
2021-09-19 10:49:20.581236,-0.181640625,0.1220703125,0.97216796875,7.0916748046875,10.469970703125,0.010986328125
2021-09-19 10:49:20.591150,-0.18310546875,0.12060546875,0.97412109375,7.0916748046875,10.469970703125,0.010986328125
2021-09-19 10:49:20.601095,-0.1826171875,0.12060546875,0.97216796875,7.0916748046875,10.469970703125,0.010986328125
2021-09-19 10:49:20.611340,-0.1806640625,0.12109375,0.97119140625,7.0916748046875,10.469970703125,0.010986328125
2021-09-19 10:49:20.621155,-0.181640625,0.1220703125,0.97216796875,7.0916748046875,10.469970703125,0.010986328125
2021-09-19 10:49:20.631034,-0.18017578125,0.123046875,0.97216796875,7.0916748046875,10.469970703125,0.010986328125
2021-09-19 10:49:20.640914,-0.18017578125,0.1220703125,0.97314453125,7.0916748046875,10.469970703125,0.010986328125
2021-09-19 10:49:20.650991,-0.1806640625,0.1220703125,0.97412109375,7.0916748046875,10.469970703125,0.010986328125
2021-09-19 10:49:20.661061,-0.17919921875,0.12353515625,0.97314453125,7.0916748046875,10.469970703125,0.010986328125
2021-09-19 10:49:20.670900,-0.18115234375,0.1220703125,0.97607421875,7.0916748046875,10.469970703125,0.010986328125
2021-09-19 10:49:20.680940,-0.1806640625,0.12158203125,0.974609375,7.0916748046875,10.469970703125,0.010986328125
2021-09-19 10:49:20.690872,-0.1806640625,0.12109375,0.97412109375,7.0916748046875,10.4644775390625,0.010986328125
2021-09-19 10:49:20.700767,-0.181640625,0.12158203125,0.97314453125,7.0916748046875,10.469970703125,0.010986328125
2021-09-19 10:49:20.710744,-0.18115234375,0.12060546875,0.97509765625,7.0916748046875,10.4644775390625,0.010986328125
2021-09-19 10:49:20.720804,-0.1806640625,0.12158203125,0.9755859375,7.0916748046875,10.4644775390625,0.010986328125
2021-09-19 10:49:20.730688,-0.18115234375,0.12158203125,0.97412109375,7.0916748046875,10.4644775390625,0.010986328125
2021-09-19 10:49:20.740621,-0.18017578125,0.12158203125,0.97314453125,7.0916748046875,10.4644775390625,0.010986328125
2021-09-19 10:49:20.750639,-0.1806640625,0.1201171875,0.97412109375,7.0916748046875,10.4644775390625,0.010986328125
2021-09-19 10:49:20.761546,-0.18212890625,0.1201171875,0.9736328125,7.0916748046875,10.4644775390625,0.010986328125
2021-09-19 10:49:20.770590,-0.18115234375,0.11962890625,0.97607421875,7.0916748046875,10.4644775390625,0.010986328125
2021-09-19 10:49:20.780515,-0.18017578125,0.1201171875,0.9716796875,7.0916748046875,10.4644775390625,0.010986328125
2021-09-19 10:49:20.790457,-0.18212890625,0.12158203125,0.97216796875,7.0916748046875,10.4644775390625,0.010986328125
2021-09-19 10:49:20.800652,-0.181640625,0.12158203125,0.97265625,7.0916748046875,10.4644775390625,0.010986328125
2021-09-19 10:49:20.810327,-0.18115234375,0.12060546875,0.9716796875,7.0916748046875,10.4644775390625,0.010986328125
2021-09-19 10:49:20.820362,-0.18115234375,0.12060546875,0.97412109375,7.0916748046875,10.4644775390625,0.010986328125
2021-09-19 10:49:20.830291,-0.1826171875,0.12158203125,0.97265625,7.0916748046875,10.4644775390625,0.010986328125
2021-09-19 10:49:20.840190,-0.18310546875,0.12158203125,0.97216796875,7.0916748046875,10.469970703125,0.010986328125
2021-09-19 10:49:20.850442,-0.181640625,0.1220703125,0.974609375,7.0916748046875,10.469970703125,0.010986328125
2021-09-19 10:49:20.860254,-0.181640625,0.12158203125,0.97265625,7.0916748046875,10.469970703125,0.010986328125
2021-09-19 10:49:20.870160,-0.181640625,0.12109375,0.97119140625,7.0916748046875,10.469970703125,0.010986328125
2021-09-19 10:49:20.880216,-0.181640625,0.12060546875,0.9736328125,7.0916748046875,10.469970703125,0.010986328125
2021-09-19 10:49:20.890153,-0.1806640625,0.1201171875,0.97509765625,7.0916748046875,10.469970703125,0.010986328125
2021-09-19 10:49:20.900196,-0.18115234375,0.12060546875,0.9716796875,7.0916748046875,10.469970703125,0.010986328125
2021-09-19 10:49:20.910021,-0.1796875,0.1220703125,0.97216796875,7.0916748046875,10.469970703125,0.010986328125
2021-09-19 10:49:20.920150,-0.1806640625,0.1220703125,0.97216796875,7.0916748046875,10.469970703125,0.010986328125
2021-09-19 10:49:20.930030,-0.18212890625,0.123046875,0.974609375,7.0916748046875,10.469970703125,0.010986328125
2021-09-19 10:49:20.939900,-0.18212890625,0.1240234375,0.97314453125,7.09716796875,10.469970703125,0.010986328125
2021-09-19 10:49:20.950151,-0.18212890625,0.1220703125,0.974609375,7.09716796875,10.469970703125,0.010986328125
2021-09-19 10:49:20.959946,-0.1806640625,0.12060546875,0.97314453125,7.09716796875,10.469970703125,0.010986328125
2021-09-19 10:49:20.969882,-0.1806640625,0.12109375,0.97509765625,7.09716796875,10.469970703125,0.010986328125
2021-09-19 10:49:20.979791,-0.18115234375,0.1220703125,0.9736328125,7.09716796875,10.469970703125,0.010986328125
2021-09-19 10:49:20.989841,-0.181640625,0.1220703125,0.97314453125,7.09716796875,10.469970703125,0.010986328125
2021-09-19 10:49:20.999838,-0.1806640625,0.12109375,0.97265625,7.09716796875,10.469970703125,0.010986328125
2021-09-19 10:49:21.009701,-0.1787109375,0.1201171875,0.97412109375,7.09716796875,10.4644775390625,0.010986328125
2021-09-19 10:49:21.019603,-0.1796875,0.1220703125,0.97314453125,7.09716796875,10.4644775390625,0.010986328125
2021-09-19 10:49:21.029692,-0.18115234375,0.12255859375,0.97412109375,7.09716796875,10.4644775390625,0.010986328125
2021-09-19 10:49:21.039587,-0.1796875,0.12109375,0.97412109375,7.09716796875,10.4644775390625,0.010986328125
2021-09-19 10:49:21.049593,-0.18212890625,0.1201171875,0.97265625,7.09716796875,10.4644775390625,0.010986328125
2021-09-19 10:49:21.059513,-0.1826171875,0.1201171875,0.97412109375,7.09716796875,10.4644775390625,0.010986328125
2021-09-19 10:49:21.069541,-0.181640625,0.12158203125,0.974609375,7.09716796875,10.4644775390625,0.010986328125
2021-09-19 10:49:21.079492,-0.18115234375,0.123046875,0.97607421875,7.09716796875,10.4644775390625,0.010986328125
2021-09-19 10:49:21.089489,-0.181640625,0.12158203125,0.97412109375,7.09716796875,10.4644775390625,0.010986328125
2021-09-19 10:49:21.099343,-0.18017578125,0.123046875,0.97021484375,7.09716796875,10.4644775390625,0.010986328125
2021-09-19 10:49:21.109387,-0.18359375,0.12353515625,0.9716796875,7.09716796875,10.469970703125,0.010986328125
2021-09-19 10:49:21.119293,-0.18310546875,0.1240234375,0.97265625,7.1026611328125,10.469970703125,0.010986328125
2021-09-19 10:49:21.129209,-0.18212890625,0.1220703125,0.9736328125,7.1026611328125,10.469970703125,0.010986328125
2021-09-19 10:49:21.139424,-0.1806640625,0.1181640625,0.97509765625,7.09716796875,10.469970703125,0.010986328125
2021-09-19 10:49:21.149235,-0.18115234375,0.1201171875,0.97412109375,7.09716796875,10.469970703125,0.010986328125
2021-09-19 10:49:21.159159,-0.1806640625,0.11962890625,0.97412109375,7.09716796875,10.469970703125,0.010986328125
2021-09-19 10:49:21.169101,-0.181640625,0.12109375,0.9736328125,7.09716796875,10.469970703125,0.010986328125
2021-09-19 10:49:21.179104,-0.18212890625,0.12158203125,0.974609375,7.09716796875,10.469970703125,0.010986328125
2021-09-19 10:49:21.189114,-0.18310546875,0.12158203125,0.9736328125,7.09716796875,10.469970703125,0.010986328125
2021-09-19 10:49:21.198986,-0.18017578125,0.12060546875,0.97412109375,7.09716796875,10.469970703125,0.010986328125
2021-09-19 10:49:21.208902,-0.18115234375,0.12255859375,0.9755859375,7.09716796875,10.469970703125,0.010986328125
2021-09-19 10:49:21.218977,-0.1806640625,0.12109375,0.9736328125,7.09716796875,10.469970703125,0.010986328125
2021-09-19 10:49:21.229056,-0.1826171875,0.12109375,0.9736328125,7.09716796875,10.469970703125,0.010986328125
2021-09-19 10:49:21.238910,-0.1826171875,0.12060546875,0.97216796875,7.09716796875,10.469970703125,0.010986328125
2021-09-19 10:49:21.248936,-0.18115234375,0.12060546875,0.9716796875,7.09716796875,10.469970703125,0.010986328125
2021-09-19 10:49:21.259734,-0.18017578125,0.1201171875,0.9716796875,7.09716796875,10.469970703125,0.010986328125
2021-09-19 10:49:21.268782,-0.1806640625,0.12060546875,0.97216796875,7.09716796875,10.469970703125,0.010986328125
2021-09-19 10:49:21.278819,-0.181640625,0.12060546875,0.97265625,7.09716796875,10.469970703125,0.010986328125
2021-09-19 10:49:21.288823,-0.18115234375,0.12060546875,0.9736328125,7.09716796875,10.469970703125,0.010986328125
2021-09-19 10:49:21.298700,-0.18212890625,0.12109375,0.97314453125,7.09716796875,10.469970703125,0.010986328125
2021-09-19 10:49:21.308626,-0.18408203125,0.12158203125,0.97412109375,7.09716796875,10.469970703125,0.010986328125
2021-09-19 10:49:21.318504,-0.18212890625,0.1201171875,0.9736328125,7.09716796875,10.469970703125,0.010986328125
2021-09-19 10:49:21.328701,-0.1806640625,0.12158203125,0.97265625,7.09716796875,10.469970703125,0.010986328125
2021-09-19 10:49:21.338523,-0.18017578125,0.119140625,0.9716796875,7.09716796875,10.469970703125,0.010986328125
2021-09-19 10:49:21.348470,-0.181640625,0.12060546875,0.974609375,7.0916748046875,10.469970703125,0.010986328125
2021-09-19 10:49:21.358361,-0.18212890625,0.12158203125,0.97607421875,7.0916748046875,10.469970703125,0.010986328125
2021-09-19 10:49:21.368434,-0.1806640625,0.12109375,0.97216796875,7.0916748046875,10.469970703125,0.010986328125
2021-09-19 10:49:21.378444,-0.1796875,0.12158203125,0.9736328125,7.0916748046875,10.469970703125,0.010986328125
2021-09-19 10:49:21.388336,-0.1787109375,0.12255859375,0.97314453125,7.09716796875,10.469970703125,0.010986328125
2021-09-19 10:49:21.398373,-0.1806640625,0.12109375,0.97314453125,7.09716796875,10.469970703125,0.010986328125
2021-09-19 10:49:21.408297,-0.18310546875,0.12158203125,0.97509765625,7.09716796875,10.469970703125,0.010986328125
2021-09-19 10:49:21.418333,-0.181640625,0.12060546875,0.97216796875,7.09716796875,10.469970703125,0.010986328125
2021-09-19 10:49:21.428202,-0.181640625,0.12255859375,0.9697265625,7.09716796875,10.469970703125,0.010986328125
2021-09-19 10:49:21.438273,-0.181640625,0.12109375,0.97412109375,7.09716796875,10.469970703125,0.010986328125
2021-09-19 10:49:21.448165,-0.17919921875,0.12060546875,0.97216796875,7.09716796875,10.469970703125,0.010986328125
2021-09-19 10:49:21.458051,-0.18115234375,0.11962890625,0.97314453125,7.09716796875,10.469970703125,0.010986328125
2021-09-19 10:49:21.468252,-0.18115234375,0.12158203125,0.97412109375,7.09716796875,10.469970703125,0.010986328125
2021-09-19 10:49:21.478130,-0.1796875,0.12353515625,0.97314453125,7.09716796875,10.469970703125,0.010986328125
2021-09-19 10:49:21.488019,-0.18115234375,0.12353515625,0.97412109375,7.09716796875,10.469970703125,0.010986328125
2021-09-19 10:49:21.497929,-0.1826171875,0.1201171875,0.97509765625,7.09716796875,10.469970703125,0.010986328125
2021-09-19 10:49:21.508118,-0.181640625,0.1201171875,0.974609375,7.09716796875,10.469970703125,0.010986328125
2021-09-19 10:49:21.518001,-0.18212890625,0.11962890625,0.9765625,7.09716796875,10.469970703125,0.010986328125
2021-09-19 10:49:21.527925,-0.1806640625,0.1201171875,0.97314453125,7.0916748046875,10.469970703125,0.010986328125
2021-09-19 10:49:21.537844,-0.18310546875,0.12060546875,0.9755859375,7.0916748046875,10.469970703125,0.010986328125
2021-09-19 10:49:21.547898,-0.1826171875,0.12158203125,0.97314453125,7.0916748046875,10.469970703125,0.010986328125
2021-09-19 10:49:21.557850,-0.18115234375,0.119140625,0.9716796875,7.0916748046875,10.469970703125,0.010986328125
2021-09-19 10:49:21.567772,-0.1806640625,0.12060546875,0.97265625,7.0916748046875,10.469970703125,0.010986328125
2021-09-19 10:49:21.577635,-0.18212890625,0.12109375,0.9716796875,7.0916748046875,10.469970703125,0.010986328125
2021-09-19 10:49:21.587701,-0.18115234375,0.11962890625,0.970703125,7.0916748046875,10.469970703125,0.010986328125
2021-09-19 10:49:21.597600,-0.18017578125,0.119140625,0.97412109375,7.0916748046875,10.469970703125,0.010986328125
2021-09-19 10:49:21.607674,-0.18115234375,0.12158203125,0.974609375,7.0916748046875,10.469970703125,0.010986328125
2021-09-19 10:49:21.617677,-0.181640625,0.12109375,0.97607421875,7.0916748046875,10.469970703125,0.010986328125
2021-09-19 10:49:21.627575,-0.18017578125,0.12158203125,0.97265625,7.0916748046875,10.469970703125,0.010986328125
2021-09-19 10:49:21.637479,-0.18017578125,0.12255859375,0.9736328125,7.0916748046875,10.469970703125,0.010986328125
2021-09-19 10:49:21.647362,-0.18115234375,0.12060546875,0.9736328125,7.0916748046875,10.469970703125,0.010986328125
2021-09-19 10:49:21.657561,-0.18017578125,0.12060546875,0.97412109375,7.0916748046875,10.469970703125,0.010986328125
2021-09-19 10:49:21.667427,-0.1806640625,0.12158203125,0.97412109375,7.0916748046875,10.469970703125,0.010986328125
2021-09-19 10:49:21.677345,-0.181640625,0.11962890625,0.974609375,7.0916748046875,10.469970703125,0.010986328125
2021-09-19 10:49:21.687253,-0.18115234375,0.12109375,0.974609375,7.0916748046875,10.469970703125,0.010986328125
2021-09-19 10:49:21.697420,-0.1826171875,0.12060546875,0.9716796875,7.0916748046875,10.469970703125,0.010986328125
2021-09-19 10:49:21.707323,-0.18310546875,0.12060546875,0.97119140625,7.0916748046875,10.469970703125,0.010986328125
2021-09-19 10:49:21.717187,-0.18115234375,0.12109375,0.97265625,7.0916748046875,10.469970703125,0.010986328125
2021-09-19 10:49:21.727303,-0.18115234375,0.1201171875,0.97265625,7.0916748046875,10.469970703125,0.010986328125
2021-09-19 10:49:21.737207,-0.1806640625,0.11962890625,0.97509765625,7.086181640625,10.469970703125,0.010986328125
2021-09-19 10:49:21.747261,-0.17919921875,0.1201171875,0.97265625,7.086181640625,10.469970703125,0.010986328125
2021-09-19 10:49:21.758125,-0.18212890625,0.11962890625,0.9736328125,7.086181640625,10.469970703125,0.010986328125
2021-09-19 10:49:21.767133,-0.1826171875,0.1201171875,0.974609375,7.086181640625,10.469970703125,0.010986328125
2021-09-19 10:49:21.777027,-0.1806640625,0.1201171875,0.970703125,7.086181640625,10.469970703125,0.010986328125
2021-09-19 10:49:21.786923,-0.18115234375,0.12060546875,0.97412109375,7.086181640625,10.469970703125,0.010986328125
2021-09-19 10:49:21.796997,-0.1806640625,0.11962890625,0.97412109375,7.086181640625,10.469970703125,0.010986328125
2021-09-19 10:49:21.807002,-0.1796875,0.123046875,0.97314453125,7.086181640625,10.469970703125,0.010986328125
2021-09-19 10:49:21.816898,-0.18212890625,0.12158203125,0.9736328125,7.086181640625,10.469970703125,0.010986328125
2021-09-19 10:49:21.826807,-0.18212890625,0.12109375,0.97216796875,7.086181640625,10.469970703125,0.010986328125
2021-09-19 10:49:21.836846,-0.18115234375,0.12255859375,0.97314453125,7.086181640625,10.469970703125,0.010986328125
2021-09-19 10:49:21.846884,-0.18115234375,0.12109375,0.9765625,7.086181640625,10.469970703125,0.010986328125
2021-09-19 10:49:21.856755,-0.18115234375,0.12060546875,0.974609375,7.086181640625,10.469970703125,0.010986328125
2021-09-19 10:49:21.866624,-0.18310546875,0.12060546875,0.974609375,7.086181640625,10.469970703125,0.010986328125
2021-09-19 10:49:21.876730,-0.181640625,0.12109375,0.97216796875,7.086181640625,10.469970703125,0.010986328125
2021-09-19 10:49:21.886699,-0.18017578125,0.1201171875,0.97412109375,7.086181640625,10.469970703125,0.010986328125
2021-09-19 10:49:21.896704,-0.181640625,0.12060546875,0.9736328125,7.086181640625,10.469970703125,0.010986328125
2021-09-19 10:49:21.906546,-0.18017578125,0.12109375,0.9736328125,7.086181640625,10.469970703125,0.010986328125
2021-09-19 10:49:21.916552,-0.1806640625,0.1220703125,0.97412109375,7.086181640625,10.469970703125,0.010986328125
2021-09-19 10:49:21.926502,-0.1806640625,0.12060546875,0.9736328125,7.086181640625,10.469970703125,0.010986328125
2021-09-19 10:49:21.936371,-0.18017578125,0.1201171875,0.97314453125,7.086181640625,10.469970703125,0.010986328125
2021-09-19 10:49:21.946569,-0.1806640625,0.1220703125,0.97412109375,7.086181640625,10.4644775390625,0.010986328125
2021-09-19 10:49:21.956454,-0.18017578125,0.12158203125,0.97607421875,7.086181640625,10.4644775390625,0.010986328125
2021-09-19 10:49:21.966350,-0.1806640625,0.1201171875,0.97802734375,7.086181640625,10.4644775390625,0.010986328125
2021-09-19 10:49:21.976437,-0.18212890625,0.11962890625,0.9736328125,7.086181640625,10.4644775390625,0.010986328125
2021-09-19 10:49:21.986402,-0.18310546875,0.119140625,0.9716796875,7.0806884765625,10.4644775390625,0.010986328125
2021-09-19 10:49:21.996488,-0.18212890625,0.119140625,0.97509765625,7.0751953125,10.469970703125,0.010986328125
2021-09-19 10:49:22.006352,-0.18017578125,0.11962890625,0.970703125,7.0751953125,10.469970703125,0.010986328125
2021-09-19 10:49:22.016511,-0.18115234375,0.1201171875,0.9716796875,7.0751953125,10.469970703125,0.010986328125
