time,acc_x,acc_y,acc_z,roll,pitch,yaw
2021-09-22 20:21:33.195437,-0.01806640625,-0.01513671875,1.0078125,-1.2744140625,0.560302734375,9.6075439453125
2021-09-22 20:21:33.202077,-0.01904296875,-0.01904296875,1.0029296875,-1.3018798828125,0.5657958984375,9.5965576171875
2021-09-22 20:21:33.211893,-0.02001953125,-0.0166015625,1.00341796875,-1.3128662109375,0.5657958984375,9.5965576171875
2021-09-22 20:21:33.221612,-0.0185546875,-0.01416015625,1.005859375,-1.307373046875,0.5712890625,9.60205078125
2021-09-22 20:21:33.231472,-0.0166015625,-0.0146484375,1.00537109375,-1.285400390625,0.582275390625,9.613037109375
2021-09-22 20:21:33.241732,-0.0185546875,-0.0146484375,1.005859375,-1.2579345703125,0.59326171875,9.6295166015625
2021-09-22 20:21:33.251499,-0.02001953125,-0.013671875,1.00634765625,-1.219482421875,0.604248046875,9.64599609375
2021-09-22 20:21:33.261568,-0.017578125,-0.01708984375,1.005859375,-1.1700439453125,0.615234375,9.66796875
2021-09-22 20:21:33.271515,-0.0185546875,-0.01513671875,1.005859375,-1.1151123046875,0.6207275390625,9.68994140625
2021-09-22 20:21:33.281398,-0.01416015625,-0.015625,1.00048828125,-1.0546875,0.6207275390625,9.7174072265625
2021-09-22 20:21:33.291470,-0.0146484375,-0.01513671875,1.00048828125,-0.9942626953125,0.615234375,9.7393798828125
2021-09-22 20:21:33.300992,-0.01318359375,-0.01513671875,1.00341796875,-0.9393310546875,0.604248046875,9.7613525390625
2021-09-22 20:21:33.311062,-0.01171875,-0.01318359375,1.0029296875,-0.8843994140625,0.5877685546875,9.7723388671875
2021-09-22 20:21:33.320905,-0.01171875,-0.0126953125,1.00732421875,-0.8349609375,0.5767822265625,9.77783203125
2021-09-22 20:21:33.330778,-0.0126953125,-0.01318359375,1.00830078125,-0.7965087890625,0.5657958984375,9.77783203125
2021-09-22 20:21:33.340839,-0.01123046875,-0.01318359375,1.00732421875,-0.758056640625,0.560302734375,9.7613525390625
2021-09-22 20:21:33.350740,-0.0068359375,-0.0146484375,1.00732421875,-0.7305908203125,0.5548095703125,9.744873046875
2021-09-22 20:21:33.360684,-0.00732421875,-0.01416015625,1.00634765625,-0.7086181640625,0.5548095703125,9.722900390625
2021-09-22 20:21:33.370568,-0.009765625,-0.01708984375,1.00341796875,-0.6976318359375,0.5548095703125,9.6954345703125
2021-09-22 20:21:33.380641,-0.009765625,-0.01708984375,1.00341796875,-0.6866455078125,0.560302734375,9.66796875
2021-09-22 20:21:33.390596,-0.009765625,-0.0126953125,1.001953125,-0.68115234375,0.5712890625,9.6405029296875
2021-09-22 20:21:33.400512,-0.00634765625,-0.0126953125,1.0009765625,-0.68115234375,0.5767822265625,9.6185302734375
2021-09-22 20:21:33.410577,-0.00439453125,-0.01171875,1.00341796875,-0.6866455078125,0.582275390625,9.591064453125
2021-09-22 20:21:33.420424,-0.0009765625,-0.0107421875,1.0048828125,-0.6866455078125,0.5767822265625,9.5635986328125
2021-09-22 20:21:33.430362,-0.00048828125,-0.0107421875,1.00634765625,-0.6866455078125,0.5712890625,9.5416259765625
2021-09-22 20:21:33.440498,-0.001953125,-0.0078125,1.01025390625,-0.68115234375,0.5767822265625,9.525146484375
2021-09-22 20:21:33.450395,-0.0009765625,-0.0087890625,1.0087890625,-0.670166015625,0.582275390625,9.5086669921875
2021-09-22 20:21:33.460374,-0.00048828125,-0.0087890625,1.005859375,-0.6536865234375,0.5987548828125,9.4976806640625
2021-09-22 20:21:33.470396,0.0,-0.0078125,1.00341796875,-0.6317138671875,0.615234375,9.4921875
2021-09-22 20:21:33.479649,-0.00146484375,-0.0068359375,1.00439453125,-0.5987548828125,0.6317138671875,9.4921875
2021-09-22 20:21:33.490249,-0.00390625,-0.00927734375,1.00634765625,-0.5712890625,0.648193359375,9.4921875
2021-09-22 20:21:33.500149,-0.00634765625,-0.00732421875,1.009765625,-0.538330078125,0.6591796875,9.4976806640625
2021-09-22 20:21:33.510713,-0.00439453125,-0.00537109375,1.00732421875,-0.50537109375,0.6646728515625,9.503173828125
2021-09-22 20:21:33.520357,-0.005859375,-0.00634765625,1.0087890625,-0.472412109375,0.6646728515625,9.5086669921875
2021-09-22 20:21:33.530064,-0.0068359375,-0.00830078125,1.01123046875,-0.439453125,0.6646728515625,9.5086669921875
2021-09-22 20:21:33.540068,-0.00732421875,-0.0087890625,1.009765625,-0.41748046875,0.6536865234375,9.51416015625
2021-09-22 20:21:33.550173,-0.009765625,-0.0068359375,1.01806640625,-0.4010009765625,0.648193359375,9.51416015625
2021-09-22 20:21:33.559971,-0.01220703125,-0.00830078125,1.025390625,-0.3955078125,0.6427001953125,9.51416015625
2021-09-22 20:21:33.569919,-0.01416015625,-0.00732421875,1.0224609375,-0.3955078125,0.6427001953125,9.51416015625
2021-09-22 20:21:33.579846,-0.01416015625,-0.00732421875,1.02392578125,-0.406494140625,0.648193359375,9.5086669921875
2021-09-22 20:21:33.590038,-0.0146484375,-0.0078125,1.0224609375,-0.4229736328125,0.6536865234375,9.4976806640625
2021-09-22 20:21:33.599872,-0.01318359375,-0.00732421875,1.0185546875,-0.450439453125,0.6591796875,9.4921875
2021-09-22 20:21:33.609756,-0.01025390625,-0.0087890625,1.01708984375,-0.4888916015625,0.6536865234375,9.481201171875
2021-09-22 20:21:33.619878,-0.00634765625,-0.009765625,1.0166015625,-0.5328369140625,0.6427001953125,9.47021484375
2021-09-22 20:21:33.629769,-0.0068359375,-0.01123046875,1.01904296875,-0.582275390625,0.6317138671875,9.4647216796875
2021-09-22 20:21:33.639657,-0.00634765625,-0.0126953125,1.0107421875,-0.63720703125,0.615234375,9.459228515625
2021-09-22 20:21:33.649677,-0.0087890625,-0.00927734375,1.01611328125,-0.692138671875,0.5987548828125,9.4537353515625
2021-09-22 20:21:33.659702,-0.005859375,-0.0068359375,1.01806640625,-0.7415771484375,0.5877685546875,9.4537353515625
2021-09-22 20:21:33.669639,-0.00439453125,-0.0068359375,1.0185546875,-0.7855224609375,0.5767822265625,9.459228515625
2021-09-22 20:21:33.679536,-0.0048828125,-0.0087890625,1.013671875,-0.823974609375,0.5767822265625,9.459228515625
2021-09-22 20:21:33.689650,-0.0029296875,-0.01025390625,1.01416015625,-0.845947265625,0.5767822265625,9.47021484375
2021-09-22 20:21:33.699468,-0.00146484375,-0.0146484375,1.0146484375,-0.8624267578125,0.5767822265625,9.481201171875
2021-09-22 20:21:33.709552,-0.0029296875,-0.01611328125,1.01513671875,-0.87890625,0.5767822265625,9.4976806640625
2021-09-22 20:21:33.719418,-0.00341796875,-0.013671875,1.01220703125,-0.8843994140625,0.5712890625,9.51416015625
2021-09-22 20:21:33.729419,-0.00244140625,-0.015625,1.0087890625,-0.889892578125,0.560302734375,9.5361328125
2021-09-22 20:21:33.739359,-0.00146484375,-0.013671875,1.009765625,-0.8953857421875,0.5438232421875,9.55810546875
2021-09-22 20:21:33.749289,-0.00048828125,-0.01171875,1.00634765625,-0.90087890625,0.516357421875,9.580078125
2021-09-22 20:21:33.759439,-0.005859375,-0.0146484375,1.0068359375,-0.90087890625,0.494384765625,9.5965576171875
2021-09-22 20:21:33.769309,-0.005859375,-0.015625,1.00537109375,-0.9063720703125,0.472412109375,9.6075439453125
2021-09-22 20:21:33.779279,-0.0068359375,-0.01806640625,1.00830078125,-0.9063720703125,0.4559326171875,9.6185302734375
2021-09-22 20:21:33.789145,-0.0078125,-0.02099609375,1.0078125,-0.911865234375,0.450439453125,9.6240234375
2021-09-22 20:21:33.799240,-0.01123046875,-0.01953125,1.00830078125,-0.911865234375,0.4559326171875,9.6295166015625
2021-09-22 20:21:33.809155,-0.0146484375,-0.0205078125,1.0048828125,-0.911865234375,0.46142578125,9.635009765625
2021-09-22 20:21:33.819329,-0.015625,-0.01904296875,1.005859375,-0.9173583984375,0.4669189453125,9.6405029296875
2021-09-22 20:21:33.829189,-0.015625,-0.01904296875,1.01025390625,-0.9283447265625,0.4779052734375,9.6405029296875
2021-09-22 20:21:33.839041,-0.01123046875,-0.02001953125,1.00927734375,-0.9393310546875,0.4779052734375,9.6405029296875
2021-09-22 20:21:33.848799,-0.01025390625,-0.0244140625,1.0068359375,-0.9613037109375,0.472412109375,9.6405029296875
2021-09-22 20:21:33.858860,-0.01513671875,-0.025390625,1.01318359375,-0.98876953125,0.472412109375,9.64599609375
2021-09-22 20:21:33.868971,-0.02197265625,-0.021484375,1.0146484375,-1.021728515625,0.472412109375,9.6514892578125
2021-09-22 20:21:33.879095,-0.02783203125,-0.02001953125,1.0146484375,-1.0546875,0.4779052734375,9.66796875
2021-09-22 20:21:33.888848,-0.02734375,-0.01904296875,1.01708984375,-1.087646484375,0.4888916015625,9.678955078125
2021-09-22 20:21:33.898981,-0.025390625,-0.01708984375,1.01220703125,-1.12060546875,0.4998779296875,9.68994140625
2021-09-22 20:21:33.908861,-0.0234375,-0.01904296875,1.00830078125,-1.153564453125,0.50537109375,9.6954345703125
2021-09-22 20:21:33.918729,-0.0224609375,-0.02294921875,1.00830078125,-1.1810302734375,0.516357421875,9.700927734375
2021-09-22 20:21:33.928797,-0.01953125,-0.025390625,1.0048828125,-1.2139892578125,0.5218505859375,9.7064208984375
2021-09-22 20:21:33.938870,-0.015625,-0.0263671875,1.00439453125,-1.2469482421875,0.5218505859375,9.7064208984375
2021-09-22 20:21:33.948670,-0.0146484375,-0.02490234375,1.0087890625,-1.2744140625,0.5108642578125,9.7119140625
2021-09-22 20:21:33.958795,-0.01611328125,-0.0224609375,1.0107421875,-1.29638671875,0.50537109375,9.7119140625
2021-09-22 20:21:33.968702,-0.017578125,-0.02197265625,1.00732421875,-1.318359375,0.494384765625,9.7174072265625
2021-09-22 20:21:33.978572,-0.01416015625,-0.0244140625,1.00341796875,-1.3348388671875,0.4833984375,9.722900390625
2021-09-22 20:21:33.988457,-0.01025390625,-0.02783203125,1.005859375,-1.3458251953125,0.4669189453125,9.722900390625
2021-09-22 20:21:33.998697,-0.00537109375,-0.02978515625,1.00537109375,-1.3568115234375,0.450439453125,9.722900390625
2021-09-22 20:21:34.009254,-0.00341796875,-0.029296875,1.00341796875,-1.3623046875,0.4339599609375,9.7283935546875
2021-09-22 20:21:34.018434,-0.005859375,-0.02978515625,1.00927734375,-1.3677978515625,0.4229736328125,9.73388671875
2021-09-22 20:21:34.028505,-0.005859375,-0.0283203125,1.009765625,-1.3677978515625,0.4119873046875,9.73388671875
2021-09-22 20:21:34.038412,-0.00732421875,-0.0263671875,1.0078125,-1.3568115234375,0.4010009765625,9.7393798828125
2021-09-22 20:21:34.048368,-0.005859375,-0.02490234375,1.0009765625,-1.34033203125,0.3955078125,9.7393798828125
2021-09-22 20:21:34.058386,-0.005859375,-0.02490234375,1.0009765625,-1.318359375,0.3900146484375,9.73388671875
2021-09-22 20:21:34.068327,-0.00439453125,-0.025390625,1.00634765625,-1.3018798828125,0.384521484375,9.722900390625
2021-09-22 20:21:34.078249,-0.00244140625,-0.0283203125,1.00634765625,-1.2908935546875,0.3790283203125,9.7119140625
2021-09-22 20:21:34.088195,-0.00390625,-0.02978515625,1.0087890625,-1.2799072265625,0.384521484375,9.6954345703125
2021-09-22 20:21:34.098302,-0.0078125,-0.02783203125,1.0107421875,-1.2689208984375,0.3900146484375,9.6844482421875
2021-09-22 20:21:34.108249,-0.00732421875,-0.0283203125,1.01171875,-1.263427734375,0.3955078125,9.6734619140625
2021-09-22 20:21:34.118240,-0.0087890625,-0.025390625,1.0126953125,-1.2579345703125,0.4010009765625,9.6624755859375
2021-09-22 20:21:34.128096,-0.00830078125,-0.02392578125,1.01025390625,-1.2579345703125,0.4010009765625,9.6514892578125
2021-09-22 20:21:34.138177,-0.01025390625,-0.0205078125,1.013671875,-1.2579345703125,0.3955078125,9.6405029296875
2021-09-22 20:21:34.148058,-0.01220703125,-0.02001953125,1.01416015625,-1.2579345703125,0.3955078125,9.6295166015625
2021-09-22 20:21:34.158002,-0.01220703125,-0.02392578125,1.01953125,-1.2579345703125,0.3955078125,9.6185302734375
2021-09-22 20:21:34.168164,-0.01025390625,-0.0244140625,1.013671875,-1.263427734375,0.4010009765625,9.6075439453125
2021-09-22 20:21:34.178019,-0.0068359375,-0.02490234375,1.01025390625,-1.263427734375,0.3900146484375,9.60205078125
2021-09-22 20:21:34.187916,-0.00830078125,-0.0263671875,1.0166015625,-1.263427734375,0.3790283203125,9.60205078125
2021-09-22 20:21:34.197852,-0.0087890625,-0.0244140625,1.01513671875,-1.263427734375,0.3570556640625,9.6075439453125
2021-09-22 20:21:34.207948,-0.0068359375,-0.0234375,1.01806640625,-1.2689208984375,0.3350830078125,9.6185302734375
2021-09-22 20:21:34.217792,-0.00390625,-0.02490234375,1.015625,-1.2689208984375,0.3076171875,9.6240234375
2021-09-22 20:21:34.227833,-0.001953125,-0.02587890625,1.0107421875,-1.2689208984375,0.28564453125,9.635009765625
2021-09-22 20:21:34.237921,0.00048828125,-0.02685546875,1.01416015625,-1.2744140625,0.263671875,9.6405029296875
2021-09-22 20:21:34.247741,0.001953125,-0.0283203125,1.01025390625,-1.2799072265625,0.2362060546875,9.64599609375
2021-09-22 20:21:34.257715,0.00244140625,-0.0302734375,1.0087890625,-1.29638671875,0.2142333984375,9.6514892578125
2021-09-22 20:21:34.267750,0.00537109375,-0.02880859375,1.005859375,-1.307373046875,0.1812744140625,9.6514892578125
2021-09-22 20:21:34.277659,0.00439453125,-0.0263671875,1.0068359375,-1.3238525390625,0.142822265625,9.64599609375
2021-09-22 20:21:34.287660,0.00634765625,-0.02490234375,1.00634765625,-1.34033203125,0.10986328125,9.6405029296875
2021-09-22 20:21:34.297501,0.00244140625,-0.0263671875,1.00439453125,-1.351318359375,0.0823974609375,9.6295166015625
2021-09-22 20:21:34.307601,0.0009765625,-0.025390625,1.00390625,-1.3568115234375,0.0604248046875,9.613037109375
2021-09-22 20:21:34.317500,0.0009765625,-0.02685546875,1.0029296875,-1.3568115234375,0.0384521484375,9.5965576171875
2021-09-22 20:21:34.327444,-0.00048828125,-0.02685546875,1.00537109375,-1.3568115234375,0.02197265625,9.580078125
2021-09-22 20:21:34.337649,0.00048828125,-0.02294921875,1.00244140625,-1.3458251953125,0.0054931640625,9.5635986328125
2021-09-22 20:21:34.347481,0.001953125,-0.02294921875,0.99951171875,-1.329345703125,0.0,9.547119140625
2021-09-22 20:21:34.357075,0.00244140625,-0.02197265625,0.9990234375,-1.307373046875,-0.010986328125,9.525146484375
2021-09-22 20:21:34.366981,0.00390625,-0.02197265625,0.99755859375,-1.2799072265625,-0.0164794921875,9.5086669921875
2021-09-22 20:21:34.376883,0.0029296875,-0.02587890625,0.99951171875,-1.2579345703125,-0.0164794921875,9.4921875
2021-09-22 20:21:34.387135,0.0048828125,-0.02734375,0.99267578125,-1.2359619140625,-0.02197265625,9.4757080078125
2021-09-22 20:21:34.397308,0.005859375,-0.025390625,0.99658203125,-1.2139892578125,-0.0274658203125,9.459228515625
2021-09-22 20:21:34.407200,0.00341796875,-0.02294921875,0.99853515625,-1.1920166015625,-0.0439453125,9.4482421875
2021-09-22 20:21:34.417216,0.0009765625,-0.0166015625,1.00341796875,-1.1700439453125,-0.054931640625,9.437255859375
2021-09-22 20:21:34.427178,-0.005859375,-0.01123046875,1.00830078125,-1.142578125,-0.054931640625,9.4207763671875
2021-09-22 20:21:34.437250,-0.009765625,-0.01318359375,1.0068359375,-1.109619140625,-0.0439453125,9.404296875
2021-09-22 20:21:34.447182,-0.00830078125,-0.0146484375,1.00439453125,-1.07666015625,-0.02197265625,9.3878173828125
2021-09-22 20:21:34.457140,-0.0087890625,-0.021484375,1.00048828125,-1.043701171875,0.0,9.3658447265625
2021-09-22 20:21:34.466999,-0.00732421875,-0.02294921875,1.00537109375,-1.0162353515625,0.0274658203125,9.349365234375
2021-09-22 20:21:34.476589,-0.01025390625,-0.01904296875,1.00390625,-0.98876953125,0.054931640625,9.3328857421875
2021-09-22 20:21:34.487051,-0.01123046875,-0.01416015625,1.0029296875,-0.966796875,0.0823974609375,9.3218994140625
2021-09-22 20:21:34.496914,-0.01123046875,-0.01171875,1.00537109375,-0.94482421875,0.098876953125,9.3109130859375
2021-09-22 20:21:34.507490,-0.0107421875,-0.00927734375,1.00244140625,-0.9228515625,0.1153564453125,9.2999267578125
2021-09-22 20:21:34.516970,-0.00927734375,-0.013671875,1.00927734375,-0.911865234375,0.1263427734375,9.2889404296875
2021-09-22 20:21:34.526854,-0.00634765625,-0.01806640625,1.0048828125,-0.90087890625,0.142822265625,9.2779541015625
2021-09-22 20:21:34.536819,-0.0048828125,-0.017578125,1.0029296875,-0.8953857421875,0.1593017578125,9.2669677734375
2021-09-22 20:21:34.546878,-0.0078125,-0.01318359375,1.005859375,-0.889892578125,0.1702880859375,9.261474609375
2021-09-22 20:21:34.556823,-0.0107421875,-0.0107421875,1.0087890625,-0.889892578125,0.17578125,9.2559814453125
2021-09-22 20:21:34.566777,-0.01123046875,-0.0087890625,1.0048828125,-0.889892578125,0.1812744140625,9.25048828125
2021-09-22 20:21:34.576636,-0.01318359375,-0.0078125,1.00927734375,-0.889892578125,0.186767578125,9.239501953125
2021-09-22 20:21:34.586726,-0.01025390625,-0.01123046875,1.01416015625,-0.889892578125,0.19775390625,9.228515625
2021-09-22 20:21:34.596650,-0.00634765625,-0.01708984375,1.00830078125,-0.8953857421875,0.2142333984375,9.2230224609375
2021-09-22 20:21:34.606576,-0.00341796875,-0.0166015625,1.01123046875,-0.8953857421875,0.24169921875,9.217529296875
2021-09-22 20:21:34.616560,-0.001953125,-0.01708984375,1.00634765625,-0.8953857421875,0.274658203125,9.217529296875
2021-09-22 20:21:34.626627,-0.001953125,-0.01318359375,1.009765625,-0.8953857421875,0.296630859375,9.217529296875
2021-09-22 20:21:34.636499,-0.0009765625,-0.01220703125,1.009765625,-0.90087890625,0.318603515625,9.2230224609375
2021-09-22 20:21:34.646548,0.00048828125,-0.01171875,1.00537109375,-0.9063720703125,0.32958984375,9.2340087890625
2021-09-22 20:21:34.656473,-0.001953125,-0.01123046875,1.0126953125,-0.911865234375,0.3350830078125,9.239501953125
2021-09-22 20:21:34.666365,-0.0048828125,-0.0126953125,1.01904296875,-0.9228515625,0.3460693359375,9.25048828125
2021-09-22 20:21:34.676334,-0.00146484375,-0.01416015625,1.01220703125,-0.9283447265625,0.3570556640625,9.2559814453125
2021-09-22 20:21:34.686416,0.0009765625,-0.0146484375,1.0107421875,-0.933837890625,0.3680419921875,9.2724609375
2021-09-22 20:21:34.696297,0.00244140625,-0.01708984375,1.01025390625,-0.94482421875,0.37353515625,9.2889404296875
2021-09-22 20:21:34.706394,0.0029296875,-0.0205078125,1.0126953125,-0.955810546875,0.37353515625,9.3109130859375
2021-09-22 20:21:34.716245,0.0009765625,-0.01611328125,1.01220703125,-0.966796875,0.362548828125,9.3328857421875
2021-09-22 20:21:34.726270,-0.00146484375,-0.01416015625,1.0166015625,-0.9722900390625,0.340576171875,9.3548583984375
2021-09-22 20:21:34.736221,-0.00390625,-0.01611328125,1.017578125,-0.977783203125,0.318603515625,9.371337890625
2021-09-22 20:21:34.746055,-0.0048828125,-0.0166015625,1.0205078125,-0.9722900390625,0.3076171875,9.3768310546875
2021-09-22 20:21:34.756178,-0.005859375,-0.02099609375,1.025390625,-0.9613037109375,0.3076171875,9.3878173828125
2021-09-22 20:21:34.766035,-0.00439453125,-0.025390625,1.021484375,-0.9503173828125,0.3240966796875,9.3878173828125
2021-09-22 20:21:34.776008,-0.00048828125,-0.025390625,1.01806640625,-0.933837890625,0.3515625,9.393310546875
2021-09-22 20:21:34.786221,0.0009765625,-0.0205078125,1.0166015625,-0.911865234375,0.3680419921875,9.3988037109375
2021-09-22 20:21:34.796006,-0.00244140625,-0.01953125,1.0185546875,-0.889892578125,0.37353515625,9.404296875
2021-09-22 20:21:34.805920,-0.0009765625,-0.01708984375,1.01904296875,-0.8734130859375,0.362548828125,9.4097900390625
2021-09-22 20:21:34.816007,0.0009765625,-0.0126953125,1.01953125,-0.845947265625,0.3460693359375,9.4097900390625
2021-09-22 20:21:34.825956,0.0,-0.015625,1.02001953125,-0.81298828125,0.3350830078125,9.404296875
2021-09-22 20:21:34.835171,-0.0029296875,-0.01513671875,1.0185546875,-0.7745361328125,0.3240966796875,9.3988037109375
2021-09-22 20:21:34.845838,-0.00244140625,-0.01904296875,1.0185546875,-0.7305908203125,0.3240966796875,9.393310546875
2021-09-22 20:21:34.855862,-0.00439453125,-0.0224609375,1.0166015625,-0.692138671875,0.3240966796875,9.393310546875
2021-09-22 20:21:34.865756,-0.00634765625,-0.0185546875,1.02099609375,-0.6536865234375,0.3131103515625,9.393310546875
2021-09-22 20:21:34.875704,-0.005859375,-0.01611328125,1.02294921875,-0.6207275390625,0.3021240234375,9.393310546875
2021-09-22 20:21:34.885595,-0.0078125,-0.01513671875,1.0185546875,-0.5877685546875,0.2911376953125,9.393310546875
2021-09-22 20:21:34.895647,-0.00341796875,-0.01611328125,1.015625,-0.560302734375,0.2691650390625,9.393310546875
2021-09-22 20:21:34.905792,-0.00439453125,-0.01513671875,1.01318359375,-0.538330078125,0.252685546875,9.3878173828125
2021-09-22 20:21:34.915491,-0.0078125,-0.01318359375,1.01708984375,-0.52734375,0.230712890625,9.3878173828125
2021-09-22 20:21:34.925615,-0.0068359375,-0.01220703125,1.01318359375,-0.516357421875,0.2197265625,9.3878173828125
2021-09-22 20:21:34.935620,-0.00634765625,-0.01025390625,1.01220703125,-0.5108642578125,0.2032470703125,9.3878173828125
2021-09-22 20:21:34.945485,-0.00439453125,-0.00732421875,1.01123046875,-0.50537109375,0.1922607421875,9.393310546875
2021-09-22 20:21:34.955592,-0.00048828125,-0.00830078125,1.00927734375,-0.50537109375,0.17578125,9.3988037109375
2021-09-22 20:21:34.965556,0.0048828125,-0.00927734375,1.0048828125,-0.5108642578125,0.164794921875,9.4097900390625
2021-09-22 20:21:34.975369,0.0068359375,-0.01123046875,1.00537109375,-0.5218505859375,0.1483154296875,9.4207763671875
2021-09-22 20:21:34.985329,0.00439453125,-0.01416015625,1.00244140625,-0.5328369140625,0.1373291015625,9.437255859375
2021-09-22 20:21:34.995400,0.00048828125,-0.01318359375,1.005859375,-0.54931640625,0.1318359375,9.459228515625
2021-09-22 20:21:35.005985,-0.0029296875,-0.009765625,1.0068359375,-0.5712890625,0.120849609375,9.4866943359375
2021-09-22 20:21:35.015267,-0.009765625,-0.00537109375,1.00634765625,-0.59326171875,0.1153564453125,9.5196533203125
2021-09-22 20:21:35.025148,-0.01025390625,-0.00341796875,1.00830078125,-0.6097412109375,0.10986328125,9.547119140625
2021-09-22 20:21:35.035264,-0.009765625,-0.00390625,1.01171875,-0.6317138671875,0.10986328125,9.5745849609375
2021-09-22 20:21:35.045130,-0.00634765625,-0.009765625,1.01025390625,-0.648193359375,0.10986328125,9.5965576171875
2021-09-22 20:21:35.055153,-0.00439453125,-0.01220703125,1.01220703125,-0.670166015625,0.120849609375,9.613037109375
2021-09-22 20:21:35.065147,-0.00390625,-0.01806640625,1.009765625,-0.6976318359375,0.142822265625,9.6405029296875
2021-09-22 20:21:35.074993,-0.00439453125,-0.02001953125,0.99853515625,-0.7196044921875,0.1593017578125,9.66796875
2021-09-22 20:21:35.084959,-0.00439453125,-0.0166015625,0.99853515625,-0.7525634765625,0.1702880859375,9.6954345703125
2021-09-22 20:21:35.094848,-0.00341796875,-0.013671875,0.9990234375,-0.780029296875,0.1702880859375,9.7283935546875
2021-09-22 20:21:35.105140,-0.0029296875,-0.0107421875,1.0,-0.81298828125,0.164794921875,9.755859375
2021-09-22 20:21:35.114903,-0.00341796875,-0.01025390625,1.00146484375,-0.845947265625,0.1483154296875,9.77783203125
2021-09-22 20:21:35.124777,-0.00634765625,-0.01025390625,1.00390625,-0.87890625,0.142822265625,9.7943115234375
2021-09-22 20:21:35.134856,-0.00634765625,-0.0126953125,0.998046875,-0.9063720703125,0.1483154296875,9.810791015625
2021-09-22 20:21:35.144774,-0.0029296875,-0.01513671875,1.00146484375,-0.933837890625,0.1593017578125,9.82177734375
2021-09-22 20:21:35.154848,-0.00439453125,-0.021484375,0.998046875,-0.9613037109375,0.186767578125,9.8382568359375
2021-09-22 20:21:35.164804,-0.0029296875,-0.01904296875,0.9921875,-0.977783203125,0.2142333984375,9.854736328125
2021-09-22 20:21:35.174698,-0.00390625,-0.015625,0.99755859375,-0.999755859375,0.2362060546875,9.8712158203125
2021-09-22 20:21:35.184641,-0.0068359375,-0.0126953125,0.99560546875,-1.0162353515625,0.252685546875,9.8931884765625
2021-09-22 20:21:35.194569,-0.0078125,-0.0087890625,1.0,-1.03271484375,0.263671875,9.90966796875
2021-09-22 20:21:35.204477,-0.009765625,-0.009765625,1.00439453125,-1.0491943359375,0.263671875,9.920654296875
2021-09-22 20:21:35.214529,-0.00830078125,-0.013671875,1.00537109375,-1.065673828125,0.2691650390625,9.931640625
2021-09-22 20:21:35.224492,-0.0078125,-0.01953125,1.00244140625,-1.087646484375,0.2801513671875,9.9481201171875
2021-09-22 20:21:35.234544,-0.00634765625,-0.02294921875,0.99951171875,-1.109619140625,0.296630859375,9.964599609375
2021-09-22 20:21:35.244530,-0.0068359375,-0.0263671875,0.99658203125,-1.131591796875,0.318603515625,9.986572265625
2021-09-22 20:21:35.254435,-0.009765625,-0.02392578125,0.9970703125,-1.1590576171875,0.3460693359375,10.01953125
2021-09-22 20:21:35.265129,-0.01318359375,-0.01953125,1.00048828125,-1.1810302734375,0.37353515625,10.052490234375
2021-09-22 20:21:35.274425,-0.01708984375,-0.01806640625,1.0029296875,-1.2030029296875,0.4010009765625,10.08544921875
2021-09-22 20:21:35.284315,-0.02001953125,-0.0185546875,1.0029296875,-1.23046875,0.4339599609375,10.118408203125
2021-09-22 20:21:35.294253,-0.0205078125,-0.01806640625,1.00537109375,-1.25244140625,0.4669189453125,10.140380859375
2021-09-22 20:21:35.304156,-0.02294921875,-0.02392578125,1.00634765625,-1.285400390625,0.5108642578125,10.1678466796875
2021-09-22 20:21:35.314230,-0.0244140625,-0.0283203125,1.00830078125,-1.318359375,0.5548095703125,10.1898193359375
2021-09-22 20:21:35.324153,-0.021484375,-0.02734375,1.005859375,-1.351318359375,0.604248046875,10.2117919921875
2021-09-22 20:21:35.334067,-0.02099609375,-0.02587890625,1.0087890625,-1.38427734375,0.6536865234375,10.228271484375
2021-09-22 20:21:35.344281,-0.0234375,-0.02197265625,1.009765625,-1.417236328125,0.692138671875,10.250244140625
2021-09-22 20:21:35.354112,-0.021484375,-0.02099609375,1.0107421875,-1.4501953125,0.72509765625,10.26123046875
2021-09-22 20:21:35.364008,-0.01806640625,-0.02294921875,1.009765625,-1.4776611328125,0.7525634765625,10.2777099609375
2021-09-22 20:21:35.373919,-0.01904296875,-0.0263671875,1.013671875,-1.505126953125,0.7745361328125,10.2886962890625
2021-09-22 20:21:35.384021,-0.01904296875,-0.0283203125,1.01708984375,-1.5216064453125,0.802001953125,10.2996826171875
2021-09-22 20:21:35.394022,-0.01904296875,-0.0283203125,1.01513671875,-1.5380859375,0.823974609375,10.3106689453125
2021-09-22 20:21:35.403908,-0.0166015625,-0.0244140625,1.01708984375,-1.549072265625,0.845947265625,10.3271484375
2021-09-22 20:21:35.413960,-0.01513671875,-0.02392578125,1.01708984375,-1.549072265625,0.85693359375,10.3436279296875
2021-09-22 20:21:35.423863,-0.01171875,-0.0205078125,1.01708984375,-1.5435791015625,0.8624267578125,10.3546142578125
2021-09-22 20:21:35.433796,-0.00927734375,-0.01953125,1.0205078125,-1.5380859375,0.85693359375,10.360107421875
2021-09-22 20:21:35.443728,-0.01220703125,-0.02294921875,1.01904296875,-1.527099609375,0.8514404296875,10.3546142578125
2021-09-22 20:21:35.453777,-0.01220703125,-0.02685546875,1.0263671875,-1.5106201171875,0.845947265625,10.34912109375
2021-09-22 20:21:35.463637,-0.0126953125,-0.02880859375,1.0234375,-1.494140625,0.845947265625,10.3436279296875
2021-09-22 20:21:35.473541,-0.01220703125,-0.0283203125,1.0234375,-1.47216796875,0.8514404296875,10.338134765625
2021-09-22 20:21:35.483757,-0.0146484375,-0.0224609375,1.02197265625,-1.4447021484375,0.8514404296875,10.3326416015625
2021-09-22 20:21:35.493608,-0.01220703125,-0.02001953125,1.021484375,-1.4117431640625,0.845947265625,10.3271484375
2021-09-22 20:21:35.504233,-0.01318359375,-0.01806640625,1.01904296875,-1.3787841796875,0.8349609375,10.316162109375
2021-09-22 20:21:35.513404,-0.01513671875,-0.01953125,1.01806640625,-1.351318359375,0.8184814453125,10.30517578125
2021-09-22 20:21:35.523492,-0.01416015625,-0.02001953125,1.01708984375,-1.3238525390625,0.802001953125,10.2886962890625
2021-09-22 20:21:35.533518,-0.01220703125,-0.0224609375,1.0244140625,-1.3018798828125,0.780029296875,10.2777099609375
2021-09-22 20:21:35.543371,-0.0048828125,-0.0234375,1.0205078125,-1.2799072265625,0.7635498046875,10.2667236328125
2021-09-22 20:21:35.553247,-0.00439453125,-0.01904296875,1.0224609375,-1.2579345703125,0.7470703125,10.2557373046875
2021-09-22 20:21:35.563346,-0.00439453125,-0.01611328125,1.0185546875,-1.23046875,0.72509765625,10.2447509765625
2021-09-22 20:21:35.573244,-0.0048828125,-0.015625,1.0166015625,-1.20849609375,0.703125,10.2392578125
2021-09-22 20:21:35.583406,-0.0029296875,-0.015625,1.0166015625,-1.1810302734375,0.670166015625,10.2337646484375
2021-09-22 20:21:35.593268,-0.00341796875,-0.0166015625,1.01513671875,-1.1480712890625,0.63720703125,10.228271484375
2021-09-22 20:21:35.603186,-0.0029296875,-0.0185546875,1.0126953125,-1.12060546875,0.6097412109375,10.2227783203125
2021-09-22 20:21:35.613129,0.0,-0.01708984375,1.01171875,-1.087646484375,0.582275390625,10.228271484375
2021-09-22 20:21:35.622534,-0.0009765625,-0.01708984375,1.0068359375,-1.0491943359375,0.560302734375,10.2337646484375
2021-09-22 20:21:35.633151,0.0,-0.01708984375,1.0009765625,-1.0162353515625,0.538330078125,10.2447509765625
2021-09-22 20:21:35.642354,-0.00048828125,-0.0166015625,1.00390625,-0.9832763671875,0.5218505859375,10.2557373046875
2021-09-22 20:21:35.653129,-0.00244140625,-0.0166015625,1.0029296875,-0.9503173828125,0.5108642578125,10.272216796875
2021-09-22 20:21:35.662968,-0.001953125,-0.015625,1.0048828125,-0.9228515625,0.4998779296875,10.294189453125
2021-09-22 20:21:35.673009,-0.00537109375,-0.01318359375,1.00439453125,-0.90087890625,0.4888916015625,10.3106689453125
2021-09-22 20:21:35.683082,-0.00634765625,-0.01318359375,1.00146484375,-0.8843994140625,0.4888916015625,10.3326416015625
2021-09-22 20:21:35.692955,-0.0087890625,-0.01318359375,1.0029296875,-0.87890625,0.4888916015625,10.360107421875
2021-09-22 20:21:35.702894,-0.009765625,-0.01416015625,1.001953125,-0.8843994140625,0.494384765625,10.382080078125
2021-09-22 20:21:35.712779,-0.01171875,-0.015625,1.0078125,-0.8953857421875,0.50537109375,10.404052734375
2021-09-22 20:21:35.723037,-0.017578125,-0.01904296875,1.00732421875,-0.9173583984375,0.5328369140625,10.4315185546875
2021-09-22 20:21:35.732810,-0.021484375,-0.0185546875,1.00634765625,-0.955810546875,0.5657958984375,10.4534912109375
2021-09-22 20:21:35.742730,-0.021484375,-0.0166015625,1.0078125,-0.999755859375,0.604248046875,10.48095703125
2021-09-22 20:21:35.752602,-0.01611328125,-0.01904296875,1.0078125,-1.0491943359375,0.6317138671875,10.5029296875
2021-09-22 20:21:35.762708,-0.01806640625,-0.01904296875,1.0087890625,-1.109619140625,0.6591796875,10.52490234375
2021-09-22 20:21:35.772611,-0.0166015625,-0.0205078125,1.00927734375,-1.1810302734375,0.68115234375,10.5413818359375
2021-09-22 20:21:35.782566,-0.01513671875,-0.02197265625,1.00927734375,-1.2579345703125,0.6976318359375,10.557861328125
2021-09-22 20:21:35.792485,-0.0166015625,-0.025390625,1.0087890625,-1.34033203125,0.7196044921875,10.579833984375
2021-09-22 20:21:35.802575,-0.01708984375,-0.02880859375,1.0068359375,-1.42822265625,0.736083984375,10.5963134765625
2021-09-22 20:21:35.812430,-0.013671875,-0.02880859375,1.0078125,-1.51611328125,0.7525634765625,10.6182861328125
2021-09-22 20:21:35.822429,-0.01416015625,-0.0283203125,1.0048828125,-1.5985107421875,0.7635498046875,10.634765625
2021-09-22 20:21:35.832373,-0.01171875,-0.0302734375,1.00634765625,-1.669921875,0.780029296875,10.6512451171875
2021-09-22 20:21:35.842459,-0.013671875,-0.03125,1.0048828125,-1.73583984375,0.7965087890625,10.667724609375
2021-09-22 20:21:35.852336,-0.013671875,-0.03173828125,1.0029296875,-1.790771484375,0.8184814453125,10.6842041015625
2021-09-22 20:21:35.862222,-0.01416015625,-0.0341796875,1.00537109375,-1.8292236328125,0.8349609375,10.70068359375
2021-09-22 20:21:35.872295,-0.0185546875,-0.037109375,1.00634765625,-1.8621826171875,0.85693359375,10.711669921875
2021-09-22 20:21:35.882270,-0.02294921875,-0.037109375,1.0126953125,-1.8841552734375,0.8843994140625,10.7281494140625
2021-09-22 20:21:35.892212,-0.02001953125,-0.03515625,1.01220703125,-1.8896484375,0.90087890625,10.7391357421875
2021-09-22 20:21:35.902053,-0.0205078125,-0.03173828125,1.01220703125,-1.8841552734375,0.9173583984375,10.74462890625
2021-09-22 20:21:35.912201,-0.0185546875,-0.0341796875,1.0146484375,-1.86767578125,0.9283447265625,10.7501220703125
2021-09-22 20:21:35.922100,-0.01904296875,-0.03369140625,1.013671875,-1.845703125,0.933837890625,10.755615234375
2021-09-22 20:21:35.932024,-0.01708984375,-0.03466796875,1.01025390625,-1.8182373046875,0.9283447265625,10.755615234375
2021-09-22 20:21:35.942100,-0.01953125,-0.03759765625,1.013671875,-1.7852783203125,0.9228515625,10.755615234375
2021-09-22 20:21:35.952067,-0.021484375,-0.0390625,1.017578125,-1.746826171875,0.911865234375,10.755615234375
2021-09-22 20:21:35.961956,-0.02001953125,-0.037109375,1.01953125,-1.7083740234375,0.9063720703125,10.7611083984375
2021-09-22 20:21:35.971882,-0.02294921875,-0.03662109375,1.0205078125,-1.6644287109375,0.8953857421875,10.7611083984375
2021-09-22 20:21:35.981995,-0.02197265625,-0.033203125,1.02001953125,-1.614990234375,0.889892578125,10.755615234375
2021-09-22 20:21:35.991824,-0.02001953125,-0.0322265625,1.0185546875,-1.571044921875,0.8843994140625,10.7501220703125
2021-09-22 20:21:36.002452,-0.0126953125,-0.03125,1.01708984375,-1.527099609375,0.87890625,10.7391357421875
2021-09-22 20:21:36.011687,-0.00830078125,-0.03271484375,1.0166015625,-1.4886474609375,0.8624267578125,10.72265625
2021-09-22 20:21:36.021895,-0.0048828125,-0.033203125,1.017578125,-1.461181640625,0.845947265625,10.70068359375
2021-09-22 20:21:36.031735,-0.00439453125,-0.03369140625,1.017578125,-1.4447021484375,0.8294677734375,10.6732177734375
2021-09-22 20:21:36.041609,-0.00341796875,-0.03369140625,1.01513671875,-1.42822265625,0.8074951171875,10.6512451171875
2021-09-22 20:21:36.051681,-0.0029296875,-0.03125,1.01513671875,-1.417236328125,0.780029296875,10.623779296875
2021-09-22 20:21:36.061651,-0.00244140625,-0.0302734375,1.01171875,-1.417236328125,0.7470703125,10.5963134765625
2021-09-22 20:21:36.071679,-0.00537109375,-0.029296875,1.0126953125,-1.417236328125,0.7086181640625,10.56884765625
2021-09-22 20:21:36.081623,-0.00732421875,-0.0302734375,1.01513671875,-1.4227294921875,0.6646728515625,10.535888671875
2021-09-22 20:21:36.091563,-0.01025390625,-0.0341796875,1.021484375,-1.439208984375,0.6317138671875,10.5084228515625
2021-09-22 20:21:36.101480,-0.0087890625,-0.03564453125,1.0205078125,-1.4556884765625,0.604248046875,10.4864501953125
2021-09-22 20:21:36.111354,-0.0087890625,-0.03515625,1.01708984375,-1.47216796875,0.5877685546875,10.4644775390625
2021-09-22 20:21:36.121617,-0.0078125,-0.0341796875,1.013671875,-1.4886474609375,0.5712890625,10.4534912109375
2021-09-22 20:21:36.131420,-0.009765625,-0.029296875,1.01220703125,-1.4996337890625,0.560302734375,10.4425048828125
2021-09-22 20:21:36.141305,-0.00732421875,-0.02734375,1.00830078125,-1.5106201171875,0.54931640625,10.43701171875
2021-09-22 20:21:36.151369,-0.00634765625,-0.02880859375,1.00341796875,-1.51611328125,0.52734375,10.426025390625
2021-09-22 20:21:36.161303,-0.00732421875,-0.02734375,1.00439453125,-1.5216064453125,0.50537109375,10.4205322265625
2021-09-22 20:21:36.171477,-0.00732421875,-0.02783203125,1.00537109375,-1.5216064453125,0.4779052734375,10.4095458984375
2021-09-22 20:21:36.181250,-0.01123046875,-0.02978515625,1.0107421875,-1.5216064453125,0.4559326171875,10.404052734375
2021-09-22 20:21:36.191277,-0.01318359375,-0.025390625,1.009765625,-1.51611328125,0.439453125,10.39306640625
2021-09-22 20:21:36.201260,-0.0107421875,-0.02587890625,1.0126953125,-1.505126953125,0.428466796875,10.3875732421875
2021-09-22 20:21:36.211131,-0.0068359375,-0.0244140625,1.0078125,-1.483154296875,0.428466796875,10.3765869140625
2021-09-22 20:21:36.221138,-0.0048828125,-0.02587890625,1.001953125,-1.461181640625,0.428466796875,10.3656005859375
2021-09-22 20:21:36.231141,-0.00390625,-0.02783203125,1.001953125,-1.4337158203125,0.428466796875,10.3546142578125
2021-09-22 20:21:36.241028,-0.00146484375,-0.02734375,1.001953125,-1.40625,0.4119873046875,10.338134765625
2021-09-22 20:21:36.250920,-0.0029296875,-0.02490234375,0.99853515625,-1.3787841796875,0.3900146484375,10.316162109375
2021-09-22 20:21:36.260845,-0.0078125,-0.02099609375,1.00341796875,-1.351318359375,0.3570556640625,10.2886962890625
2021-09-22 20:21:36.270909,-0.01171875,-0.0205078125,1.005859375,-1.318359375,0.3240966796875,10.2557373046875
2021-09-22 20:21:36.280881,-0.017578125,-0.02001953125,1.01025390625,-1.2908935546875,0.3021240234375,10.21728515625
2021-09-22 20:21:36.290822,-0.0166015625,-0.02197265625,1.00732421875,-1.2579345703125,0.2801513671875,10.1788330078125
2021-09-22 20:21:36.300881,-0.01220703125,-0.0234375,1.0048828125,-1.219482421875,0.2581787109375,10.1348876953125
2021-09-22 20:21:36.310768,-0.00830078125,-0.02587890625,1.0029296875,-1.1810302734375,0.230712890625,10.096435546875
2021-09-22 20:21:36.320695,-0.00439453125,-0.0244140625,1.00048828125,-1.142578125,0.19775390625,10.0579833984375
2021-09-22 20:21:36.330919,-0.00048828125,-0.02490234375,0.9951171875,-1.0986328125,0.164794921875,10.0250244140625
2021-09-22 20:21:36.340719,0.0,-0.02197265625,0.998046875,-1.0491943359375,0.1263427734375,9.99755859375
2021-09-22 20:21:36.349928,-0.0029296875,-0.0205078125,1.0009765625,-0.999755859375,0.0933837890625,9.9755859375
2021-09-22 20:21:36.360676,-0.00341796875,-0.01611328125,0.99755859375,-0.94482421875,0.076904296875,9.9591064453125
2021-09-22 20:21:36.370593,-0.0029296875,-0.01708984375,0.9990234375,-0.8843994140625,0.06591796875,9.9371337890625
2021-09-22 20:21:36.380552,0.0029296875,-0.01513671875,1.00146484375,-0.8184814453125,0.054931640625,9.920654296875
2021-09-22 20:21:36.390661,0.00390625,-0.01708984375,0.99951171875,-0.758056640625,0.0439453125,9.898681640625
2021-09-22 20:21:36.400580,0.0087890625,-0.017578125,0.99267578125,-0.703125,0.0384521484375,9.8822021484375
2021-09-22 20:21:36.410505,0.00927734375,-0.0146484375,0.994140625,-0.6536865234375,0.0274658203125,9.86572265625
2021-09-22 20:21:36.420363,0.00390625,-0.01171875,0.9970703125,-0.6097412109375,0.0164794921875,9.84375
2021-09-22 20:21:36.430264,0.00244140625,-0.01171875,0.9990234375,-0.5712890625,0.010986328125,9.8272705078125
2021-09-22 20:21:36.440538,0.00146484375,-0.01123046875,0.99755859375,-0.5328369140625,0.010986328125,9.810791015625
2021-09-22 20:21:36.450313,0.001953125,-0.01220703125,0.99951171875,-0.5108642578125,0.010986328125,9.7943115234375
2021-09-22 20:21:36.459869,-0.00048828125,-0.00927734375,1.00341796875,-0.4888916015625,0.010986328125,9.7833251953125
2021-09-22 20:21:36.469980,-0.00244140625,-0.00830078125,1.00634765625,-0.4779052734375,0.0164794921875,9.7723388671875
2021-09-22 20:21:36.479889,-0.005859375,-0.00732421875,1.0087890625,-0.472412109375,0.0274658203125,9.7613525390625
2021-09-22 20:21:36.490323,-0.005859375,-0.0068359375,1.0068359375,-0.472412109375,0.054931640625,9.755859375
2021-09-22 20:21:36.500767,-0.00341796875,-0.00830078125,1.00390625,-0.4779052734375,0.0823974609375,9.7503662109375
2021-09-22 20:21:36.510190,-0.00244140625,-0.0078125,1.00341796875,-0.4888916015625,0.10986328125,9.7503662109375
2021-09-22 20:21:36.520125,-0.00390625,-0.00732421875,1.00732421875,-0.50537109375,0.1318359375,9.7503662109375
2021-09-22 20:21:36.530040,-0.0048828125,-0.005859375,1.005859375,-0.5328369140625,0.15380859375,9.7503662109375
2021-09-22 20:21:36.540266,-0.00927734375,-0.0029296875,1.01318359375,-0.560302734375,0.1702880859375,9.7503662109375
2021-09-22 20:21:36.550040,-0.01171875,-0.00048828125,1.01708984375,-0.5877685546875,0.1922607421875,9.744873046875
2021-09-22 20:21:36.559941,-0.01416015625,-0.00244140625,1.02392578125,-0.626220703125,0.2197265625,9.744873046875
2021-09-22 20:21:36.569856,-0.015625,-0.00537109375,1.0234375,-0.6646728515625,0.2471923828125,9.7393798828125
2021-09-22 20:21:36.579901,-0.01416015625,-0.00830078125,1.01953125,-0.7086181640625,0.2801513671875,9.7393798828125
2021-09-22 20:21:36.589846,-0.0087890625,-0.0107421875,1.013671875,-0.7525634765625,0.3076171875,9.7393798828125
2021-09-22 20:21:36.599809,-0.0107421875,-0.00927734375,1.01025390625,-0.791015625,0.3240966796875,9.7503662109375
2021-09-22 20:21:36.609663,-0.00830078125,-0.0087890625,1.009765625,-0.8349609375,0.32958984375,9.755859375
2021-09-22 20:21:36.619778,-0.0068359375,-0.01123046875,1.01025390625,-0.87890625,0.32958984375,9.7723388671875
2021-09-22 20:21:36.629687,-0.0068359375,-0.01416015625,1.013671875,-0.9173583984375,0.3240966796875,9.7833251953125
2021-09-22 20:21:36.639639,-0.005859375,-0.01513671875,1.01318359375,-0.9503173828125,0.3131103515625,9.7998046875
2021-09-22 20:21:36.649804,-0.00634765625,-0.01513671875,1.01611328125,-0.977783203125,0.3021240234375,9.8162841796875
2021-09-22 20:21:36.659640,-0.00537109375,-0.01708984375,1.01513671875,-1.0052490234375,0.296630859375,9.832763671875
2021-09-22 20:21:36.669527,-0.00048828125,-0.01953125,1.0166015625,-1.0272216796875,0.2911376953125,9.854736328125
2021-09-22 20:21:36.679627,0.00146484375,-0.02099609375,1.0146484375,-1.0382080078125,0.28564453125,9.8712158203125
2021-09-22 20:21:36.689534,0.00341796875,-0.0205078125,1.01416015625,-1.0491943359375,0.2911376953125,9.8876953125
2021-09-22 20:21:36.699602,0.001953125,-0.02197265625,1.00927734375,-1.0546875,0.296630859375,9.9041748046875
2021-09-22 20:21:36.709405,0.0009765625,-0.02294921875,1.0048828125,-1.0601806640625,0.3131103515625,9.90966796875
2021-09-22 20:21:36.719477,-0.0009765625,-0.02099609375,1.0048828125,-1.065673828125,0.3350830078125,9.920654296875
2021-09-22 20:21:36.729362,-0.00634765625,-0.0205078125,1.0068359375,-1.0711669921875,0.3460693359375,9.9261474609375
2021-09-22 20:21:36.739340,-0.009765625,-0.01708984375,1.009765625,-1.07666015625,0.3570556640625,9.9261474609375
2021-09-22 20:21:36.749479,-0.00927734375,-0.01318359375,1.00732421875,-1.07666015625,0.3570556640625,9.920654296875
2021-09-22 20:21:36.759169,-0.00927734375,-0.01318359375,1.00732421875,-1.0821533203125,0.362548828125,9.9151611328125
2021-09-22 20:21:36.769268,-0.00830078125,-0.01513671875,1.00927734375,-1.087646484375,0.3570556640625,9.9041748046875
2021-09-22 20:21:36.779215,-0.00732421875,-0.015625,1.01123046875,-1.0931396484375,0.3460693359375,9.8876953125
2021-09-22 20:21:36.789069,-0.0087890625,-0.01806640625,1.01220703125,-1.0986328125,0.3515625,9.8712158203125
2021-09-22 20:21:36.798976,-0.0078125,-0.01708984375,1.0087890625,-1.0986328125,0.3570556640625,9.8492431640625
2021-09-22 20:21:36.809134,-0.00830078125,-0.0166015625,1.01025390625,-1.0931396484375,0.3680419921875,9.832763671875
2021-09-22 20:21:36.819026,-0.01025390625,-0.013671875,1.0078125,-1.087646484375,0.3790283203125,9.810791015625
2021-09-22 20:21:36.828913,-0.01171875,-0.0087890625,1.01220703125,-1.07666015625,0.384521484375,9.788818359375
2021-09-22 20:21:36.839011,-0.01123046875,-0.00732421875,1.01025390625,-1.065673828125,0.384521484375,9.7613525390625
2021-09-22 20:21:36.848943,-0.00927734375,-0.009765625,1.0107421875,-1.0546875,0.3790283203125,9.73388671875
2021-09-22 20:21:36.858961,-0.00927734375,-0.01123046875,1.01513671875,-1.043701171875,0.37353515625,9.7064208984375
2021-09-22 20:21:36.868981,-0.01123046875,-0.01171875,1.01171875,-1.03271484375,0.3680419921875,9.678955078125
2021-09-22 20:21:36.878891,-0.01220703125,-0.01123046875,1.01123046875,-1.0162353515625,0.37353515625,9.656982421875
2021-09-22 20:21:36.888830,-0.01220703125,-0.0068359375,1.01416015625,-0.9942626953125,0.3790283203125,9.6405029296875
2021-09-22 20:21:36.898732,-0.0126953125,-0.00146484375,1.01171875,-0.9722900390625,0.384521484375,9.6240234375
2021-09-22 20:21:36.908922,-0.0107421875,-0.00048828125,1.0146484375,-0.94482421875,0.384521484375,9.6075439453125
2021-09-22 20:21:36.918750,-0.01123046875,0.0,1.0166015625,-0.911865234375,0.384521484375,9.5965576171875
2021-09-22 20:21:36.928290,-0.0078125,-0.00390625,1.013671875,-0.8843994140625,0.3790283203125,9.5855712890625
2021-09-22 20:21:36.938764,-0.005859375,-0.00732421875,1.01171875,-0.8624267578125,0.37353515625,9.5745849609375
2021-09-22 20:21:36.948639,-0.005859375,-0.0078125,1.01220703125,-0.845947265625,0.3680419921875,9.569091796875
2021-09-22 20:21:36.958555,-0.0029296875,-0.00830078125,1.0107421875,-0.8294677734375,0.3570556640625,9.569091796875
2021-09-22 20:21:36.968561,-0.00146484375,-0.0087890625,1.01513671875,-0.8184814453125,0.3515625,9.5745849609375
2021-09-22 20:21:36.978589,-0.0029296875,-0.0048828125,1.01220703125,-0.8074951171875,0.3460693359375,9.580078125
2021-09-22 20:21:36.988484,-0.00341796875,-0.00048828125,1.013671875,-0.8074951171875,0.340576171875,9.5855712890625
2021-09-22 20:21:36.999062,-0.0009765625,-0.00146484375,1.01513671875,-0.81298828125,0.32958984375,9.591064453125
2021-09-22 20:21:37.008465,0.00048828125,-0.00439453125,1.01416015625,-0.823974609375,0.3131103515625,9.591064453125
2021-09-22 20:21:37.018494,0.00341796875,-0.00927734375,1.01513671875,-0.8514404296875,0.2911376953125,9.5855712890625
2021-09-22 20:21:37.028346,0.00439453125,-0.0107421875,1.01318359375,-0.8843994140625,0.2691650390625,9.5855712890625
2021-09-22 20:21:37.038278,0.005859375,-0.01171875,1.01416015625,-0.9173583984375,0.252685546875,9.5855712890625
2021-09-22 20:21:37.048360,0.00537109375,-0.013671875,1.0146484375,-0.9503173828125,0.24169921875,9.5855712890625
2021-09-22 20:21:37.058225,0.00537109375,-0.015625,1.01416015625,-0.9832763671875,0.2362060546875,9.591064453125
2021-09-22 20:21:37.068285,0.0068359375,-0.01611328125,1.01123046875,-1.0052490234375,0.24169921875,9.60205078125
2021-09-22 20:21:37.078131,0.005859375,-0.01708984375,1.00732421875,-1.0272216796875,0.2471923828125,9.6185302734375
2021-09-22 20:21:37.088249,0.00341796875,-0.01708984375,1.01220703125,-1.0491943359375,0.252685546875,9.6405029296875
2021-09-22 20:21:37.098176,-0.00048828125,-0.013671875,1.01416015625,-1.0711669921875,0.252685546875,9.6624755859375
2021-09-22 20:21:37.108038,-0.0009765625,-0.01513671875,1.021484375,-1.0931396484375,0.252685546875,9.6844482421875
2021-09-22 20:21:37.118152,0.00146484375,-0.01708984375,1.02099609375,-1.1151123046875,0.252685546875,9.7119140625
2021-09-22 20:21:37.128031,0.00244140625,-0.017578125,1.0244140625,-1.131591796875,0.2581787109375,9.73388671875
2021-09-22 20:21:37.137946,0.00439453125,-0.017578125,1.01708984375,-1.142578125,0.263671875,9.7613525390625
2021-09-22 20:21:37.147863,0.00537109375,-0.0224609375,1.013671875,-1.153564453125,0.263671875,9.788818359375
2021-09-22 20:21:37.157769,0.00537109375,-0.01953125,1.017578125,-1.16455078125,0.2581787109375,9.8162841796875
2021-09-22 20:21:37.167992,0.001953125,-0.02001953125,1.0224609375,-1.175537109375,0.2471923828125,9.84375
2021-09-22 20:21:37.177840,0.00244140625,-0.017578125,1.0263671875,-1.1865234375,0.2362060546875,9.86572265625
2021-09-22 20:21:37.187724,0.00390625,-0.01953125,1.02734375,-1.197509765625,0.2197265625,9.8876953125
2021-09-22 20:21:37.197889,0.0087890625,-0.02197265625,1.02099609375,-1.20849609375,0.19775390625,9.90966796875
2021-09-22 20:21:37.207806,0.0107421875,-0.025390625,1.02197265625,-1.23046875,0.1702880859375,9.9261474609375
2021-09-22 20:21:37.217757,0.00927734375,-0.0283203125,1.021484375,-1.25244140625,0.1373291015625,9.942626953125
2021-09-22 20:21:37.227611,0.009765625,-0.0283203125,1.0244140625,-1.2744140625,0.098876953125,9.9591064453125
2021-09-22 20:21:37.237710,0.0078125,-0.02880859375,1.0244140625,-1.307373046875,0.0604248046875,9.9755859375
2021-09-22 20:21:37.247553,0.00341796875,-0.0283203125,1.02734375,-1.3458251953125,0.0274658203125,9.9920654296875
2021-09-22 20:21:37.257483,0.0,-0.0244140625,1.03076171875,-1.3787841796875,0.0,10.0140380859375
2021-09-22 20:21:37.266687,0.00048828125,-0.0224609375,1.025390625,-1.4117431640625,-0.0164794921875,10.030517578125
2021-09-22 20:21:37.277270,0.00390625,-0.025390625,1.02392578125,-1.4501953125,-0.032958984375,10.04150390625
2021-09-22 20:21:37.287435,0.01025390625,-0.03125,1.0205078125,-1.483154296875,-0.0604248046875,10.0579833984375
2021-09-22 20:21:37.297337,0.015625,-0.0322265625,1.01806640625,-1.51611328125,-0.0933837890625,10.074462890625
2021-09-22 20:21:37.307426,0.01806640625,-0.03369140625,1.013671875,-1.549072265625,-0.1318359375,10.0909423828125
2021-09-22 20:21:37.317358,0.013671875,-0.03369140625,1.015625,-1.58203125,-0.1812744140625,10.1129150390625
2021-09-22 20:21:37.327437,0.01123046875,-0.03369140625,1.01318359375,-1.614990234375,-0.2252197265625,10.1348876953125
2021-09-22 20:21:37.337273,0.00732421875,-0.0302734375,1.0107421875,-1.636962890625,-0.274658203125,10.1513671875
2021-09-22 20:21:37.347262,0.00537109375,-0.0283203125,1.01318359375,-1.658935546875,-0.32958984375,10.17333984375
2021-09-22 20:21:37.357214,0.001953125,-0.02880859375,1.01513671875,-1.669921875,-0.384521484375,10.1898193359375
2021-09-22 20:21:37.367070,0.00537109375,-0.03173828125,1.0185546875,-1.6754150390625,-0.4339599609375,10.206298828125
2021-09-22 20:21:37.377169,0.01025390625,-0.03662109375,1.009765625,-1.6754150390625,-0.4833984375,10.21728515625
2021-09-22 20:21:37.387158,0.0146484375,-0.04052734375,1.0009765625,-1.669921875,-0.5218505859375,10.228271484375
2021-09-22 20:21:37.396989,0.01318359375,-0.0419921875,1.00048828125,-1.658935546875,-0.560302734375,10.2447509765625
2021-09-22 20:21:37.406950,0.01171875,-0.03857421875,0.9951171875,-1.64794921875,-0.5877685546875,10.26123046875
2021-09-22 20:21:37.416816,0.01171875,-0.03515625,0.99462890625,-1.6424560546875,-0.615234375,10.272216796875
2021-09-22 20:21:37.427020,0.01513671875,-0.033203125,0.9970703125,-1.6314697265625,-0.648193359375,10.283203125
2021-09-22 20:21:37.436932,0.01806640625,-0.033203125,0.994140625,-1.6204833984375,-0.68115234375,10.2886962890625
2021-09-22 20:21:37.446771,0.01513671875,-0.0322265625,0.9970703125,-1.60400390625,-0.7196044921875,10.283203125
2021-09-22 20:21:37.456695,0.00927734375,-0.03173828125,0.99951171875,-1.5875244140625,-0.7470703125,10.2777099609375
2021-09-22 20:21:37.466753,0.0107421875,-0.03271484375,1.00244140625,-1.5655517578125,-0.76904296875,10.26123046875
2021-09-22 20:21:37.476828,0.00634765625,-0.03466796875,1.0029296875,-1.5380859375,-0.7745361328125,10.2447509765625
2021-09-22 20:21:37.486656,0.0068359375,-0.03564453125,1.005859375,-1.505126953125,-0.7745361328125,10.228271484375
2021-09-22 20:21:37.497247,0.00439453125,-0.03515625,1.001953125,-1.461181640625,-0.76904296875,10.21728515625
2021-09-22 20:21:37.506628,0.00732421875,-0.03125,1.0009765625,-1.417236328125,-0.76904296875,10.206298828125
2021-09-22 20:21:37.516538,0.005859375,-0.0283203125,1.0048828125,-1.3623046875,-0.780029296875,10.1898193359375
2021-09-22 20:21:37.526583,0.00146484375,-0.02490234375,1.00927734375,-1.29638671875,-0.7965087890625,10.1788330078125
2021-09-22 20:21:37.536558,0.00048828125,-0.0244140625,1.009765625,-1.219482421875,-0.81298828125,10.1568603515625
2021-09-22 20:21:37.546503,0.00244140625,-0.025390625,1.01025390625,-1.1370849609375,-0.8404541015625,10.1348876953125
2021-09-22 20:21:37.556383,0.001953125,-0.029296875,1.00634765625,-1.0491943359375,-0.867919921875,10.1129150390625
2021-09-22 20:21:37.566474,0.00634765625,-0.0302734375,1.005859375,-0.955810546875,-0.90087890625,10.08544921875
2021-09-22 20:21:37.576373,0.0068359375,-0.0283203125,1.00537109375,-0.8514404296875,-0.933837890625,10.0634765625
2021-09-22 20:21:37.586359,0.00830078125,-0.0244140625,1.00732421875,-0.736083984375,-0.9832763671875,10.04150390625
2021-09-22 20:21:37.596205,0.0087890625,-0.02197265625,1.01171875,-0.6097412109375,-1.03271484375,10.01953125
2021-09-22 20:21:37.606322,0.00927734375,-0.017578125,1.0126953125,-0.4669189453125,-1.0821533203125,9.9920654296875
2021-09-22 20:21:37.616219,0.00830078125,-0.01611328125,1.0087890625,-0.318603515625,-1.1260986328125,9.9591064453125
2021-09-22 20:21:37.626134,0.01025390625,-0.01708984375,1.0068359375,-0.1702880859375,-1.1590576171875,9.920654296875
2021-09-22 20:21:37.636329,0.01513671875,-0.017578125,1.00048828125,-0.02197265625,-1.1920166015625,9.8712158203125
2021-09-22 20:21:37.646224,0.01806640625,-0.01611328125,0.998046875,0.1043701171875,-1.2249755859375,9.82177734375
2021-09-22 20:21:37.656179,0.01953125,-0.013671875,0.9990234375,0.2252197265625,-1.2579345703125,9.766845703125
2021-09-22 20:21:37.665985,0.01904296875,-0.0078125,0.99658203125,0.3350830078125,-1.29638671875,9.7064208984375
2021-09-22 20:21:37.676059,0.0205078125,-0.00634765625,0.99951171875,0.4229736328125,-1.34033203125,9.64599609375
2021-09-22 20:21:37.685954,0.025390625,-0.0068359375,1.00048828125,0.4888916015625,-1.3897705078125,9.5855712890625
2021-09-22 20:21:37.696214,0.0322265625,-0.00830078125,0.9990234375,0.52734375,-1.439208984375,9.5196533203125
2021-09-22 20:21:37.705894,0.03369140625,-0.00927734375,0.99853515625,0.54931640625,-1.483154296875,9.4647216796875
2021-09-22 20:21:37.715892,0.0322265625,-0.0078125,0.99658203125,0.5438232421875,-1.51611328125,9.4097900390625
2021-09-22 20:21:37.725811,0.0263671875,-0.00146484375,0.99853515625,0.5218505859375,-1.5380859375,9.3658447265625
2021-09-22 20:21:37.735888,0.0712890625,-0.0263671875,0.93408203125,0.4669189453125,-1.5765380859375,9.3218994140625
2021-09-22 20:21:37.745776,0.0068359375,-0.0498046875,1.1591796875,0.4229736328125,-1.593017578125,9.20654296875
2021-09-22 20:21:37.755814,-0.03759765625,-0.18017578125,1.22900390625,0.28564453125,-1.60400390625,9.0087890625
2021-09-22 20:21:37.765695,0.06396484375,-0.1484375,0.923828125,0.15380859375,-1.614990234375,8.7451171875
2021-09-22 20:21:37.775632,0.01123046875,-0.0888671875,1.0234375,0.1263427734375,-1.658935546875,8.4320068359375
2021-09-22 20:21:37.785726,0.0302734375,0.0380859375,0.83447265625,0.1702880859375,-1.6864013671875,8.118896484375
2021-09-22 20:21:37.795562,-0.00732421875,0.06884765625,0.91943359375,0.2362060546875,-1.6424560546875,7.9266357421875
2021-09-22 20:21:37.805709,0.02978515625,0.072265625,0.923828125,0.3131103515625,-1.60400390625,7.921142578125
2021-09-22 20:21:37.815633,-0.017578125,0.12646484375,1.1005859375,0.428466796875,-1.549072265625,8.0584716796875
2021-09-22 20:21:37.825506,-0.04248046875,0.0771484375,0.94677734375,0.5877685546875,-1.4886474609375,8.2781982421875
2021-09-22 20:21:37.835466,-0.0048828125,0.1611328125,1.01513671875,0.7525634765625,-1.4501953125,8.5198974609375
2021-09-22 20:21:37.845525,0.00439453125,0.13623046875,1.078125,0.911865234375,-1.4556884765625,8.72314453125
2021-09-22 20:21:37.855440,0.04638671875,0.083984375,1.05419921875,1.0107421875,-1.505126953125,8.8934326171875
2021-09-22 20:21:37.865425,0.0712890625,0.06787109375,1.00048828125,1.0382080078125,-1.5985107421875,9.0582275390625
2021-09-22 20:21:37.875276,0.1015625,0.05712890625,1.01513671875,1.0107421875,-1.724853515625,9.2230224609375
2021-09-22 20:21:37.885277,0.0810546875,0.0439453125,1.04931640625,0.9173583984375,-1.845703125,9.4097900390625
2021-09-22 20:21:37.895339,0.10595703125,-0.01220703125,0.96923828125,0.7525634765625,-1.95556640625,9.591064453125
2021-09-22 20:21:37.905259,0.0712890625,-0.02294921875,1.0361328125,0.52734375,-2.0269775390625,9.755859375
2021-09-22 20:21:37.915299,0.08251953125,0.0078125,0.90185546875,0.2581787109375,-2.0654296875,9.8712158203125
2021-09-22 20:21:37.925262,0.0732421875,0.00244140625,0.8759765625,-0.0494384765625,-2.0489501953125,9.942626953125
2021-09-22 20:21:37.935096,0.052734375,-0.0576171875,0.95458984375,-0.41748046875,-1.966552734375,9.9591064453125
2021-09-22 20:21:37.945026,0.080078125,-0.0263671875,0.93115234375,-0.802001953125,-1.8621826171875,9.95361328125
2021-09-22 20:21:37.954955,0.06201171875,0.01708984375,0.95947265625,-1.20849609375,-1.7303466796875,9.964599609375
2021-09-22 20:21:37.964996,0.02392578125,-0.04150390625,0.94287109375,-1.6259765625,-1.5545654296875,10.030517578125
2021-09-22 20:21:37.975025,0.00830078125,-0.0458984375,0.91748046875,-2.0599365234375,-1.3458251953125,10.1458740234375
2021-09-22 20:21:37.984867,0.02685546875,-0.02490234375,0.9267578125,-2.4884033203125,-1.1260986328125,10.2777099609375
2021-09-22 20:21:37.995485,-0.0146484375,0.00732421875,1.06787109375,-2.867431640625,-0.87890625,10.3875732421875
2021-09-22 20:21:38.004918,-0.02880859375,-0.05615234375,1.02294921875,-3.218994140625,-0.6591796875,10.4864501953125
2021-09-22 20:21:38.014827,0.01171875,-0.02685546875,1.0771484375,-3.570556640625,-0.4449462890625,10.5303955078125
2021-09-22 20:21:38.024735,0.0,-0.05224609375,1.0830078125,-3.8946533203125,-0.252685546875,10.535888671875
2021-09-22 20:21:38.034218,-0.013671875,-0.064453125,1.0556640625,-4.2022705078125,-0.10986328125,10.5413818359375
2021-09-22 20:21:38.044777,-0.00732421875,-0.06640625,1.07568359375,-4.449462890625,-0.0054931640625,10.557861328125
2021-09-22 20:21:38.054643,-0.015625,-0.09716796875,1.056640625,-4.6417236328125,0.0604248046875,10.579833984375
2021-09-22 20:21:38.064217,-0.02685546875,-0.109375,1.1103515625,-4.74609375,0.087890625,10.5963134765625
2021-09-22 20:21:38.074662,-0.02685546875,-0.1025390625,1.0595703125,-4.76806640625,0.0714111328125,10.6072998046875
2021-09-22 20:21:38.084793,-0.03271484375,-0.0869140625,1.01123046875,-4.6966552734375,0.0439453125,10.6182861328125
2021-09-22 20:21:38.094564,-0.0087890625,-0.0673828125,0.96630859375,-4.5648193359375,0.0,10.6512451171875
2021-09-22 20:21:38.104625,-0.02001953125,-0.05908203125,1.017578125,-4.361572265625,-0.0384521484375,10.6951904296875
2021-09-22 20:21:38.114210,0.0263671875,-0.04638671875,0.994140625,-4.097900390625,-0.098876953125,10.78857421875
2021-09-22 20:21:38.124476,0.06298828125,-0.08447265625,0.92333984375,-3.84521484375,-0.1922607421875,10.8819580078125
2021-09-22 20:21:38.134347,0.0380859375,-0.10693359375,1.05126953125,-3.570556640625,-0.2691650390625,10.953369140625
2021-09-22 20:21:38.144456,0.0361328125,-0.142578125,0.99365234375,-3.3123779296875,-0.32958984375,11.0028076171875
2021-09-22 20:21:38.154392,0.0224609375,-0.0888671875,1.02734375,-3.043212890625,-0.384521484375,11.00830078125
2021-09-22 20:21:38.164291,0.029296875,-0.05615234375,1.01123046875,-2.74658203125,-0.41748046875,10.9808349609375
2021-09-22 20:21:38.174240,0.00390625,-0.0927734375,1.060546875,-2.449951171875,-0.4119873046875,10.9478759765625
2021-09-22 20:21:38.184260,0.0087890625,-0.02099609375,1.1015625,-2.1588134765625,-0.406494140625,10.9149169921875
2021-09-22 20:21:38.194258,0.02197265625,-0.013671875,1.09716796875,-1.8951416015625,-0.4010009765625,10.8709716796875
2021-09-22 20:21:38.204319,0.0224609375,-0.04736328125,1.111328125,-1.6864013671875,-0.4119873046875,10.8270263671875
2021-09-22 20:21:38.214346,0.03466796875,-0.02734375,1.10107421875,-1.549072265625,-0.439453125,10.7830810546875
2021-09-22 20:21:38.224169,0.04736328125,-0.06298828125,1.01123046875,-1.4666748046875,-0.494384765625,10.7391357421875
2021-09-22 20:21:38.234114,0.0478515625,-0.046875,1.08056640625,-1.42822265625,-0.5548095703125,10.70068359375
2021-09-22 20:21:38.244022,0.04150390625,-0.060546875,1.060546875,-1.439208984375,-0.615234375,10.6622314453125
2021-09-22 20:21:38.254105,0.0234375,-0.060546875,1.0439453125,-1.4996337890625,-0.670166015625,10.601806640625
2021-09-22 20:21:38.263978,0.01171875,-0.0244140625,1.001953125,-1.58203125,-0.714111328125,10.5084228515625
2021-09-22 20:21:38.274016,0.00390625,-0.05078125,1.00732421875,-1.6973876953125,-0.736083984375,10.37109375
2021-09-22 20:21:38.284028,-0.01708984375,-0.09130859375,1.02978515625,-1.834716796875,-0.714111328125,10.1953125
2021-09-22 20:21:38.293930,0.03271484375,-0.041015625,0.98974609375,-1.966552734375,-0.6976318359375,10.0140380859375
2021-09-22 20:21:38.303787,0.01220703125,-0.01904296875,1.03125,-2.0819091796875,-0.692138671875,9.854736328125
2021-09-22 20:21:38.313711,-0.0185546875,-0.06787109375,0.98779296875,-2.186279296875,-0.692138671875,9.766845703125
2021-09-22 20:21:38.323645,-0.02197265625,-0.05078125,0.96240234375,-2.2796630859375,-0.7086181640625,9.744873046875
2021-09-22 20:21:38.333813,-0.00244140625,-0.029296875,0.98779296875,-2.340087890625,-0.7415771484375,9.744873046875
2021-09-22 20:21:38.343754,-0.0380859375,0.005859375,1.1181640625,-2.3345947265625,-0.76904296875,9.7393798828125
2021-09-22 20:21:38.353657,-0.056640625,-0.0673828125,1.07421875,-2.296142578125,-0.802001953125,9.7174072265625
2021-09-22 20:21:38.363542,0.00634765625,-0.0244140625,1.08447265625,-2.252197265625,-0.8349609375,9.6514892578125
2021-09-22 20:21:38.373625,0.01611328125,-0.06298828125,1.07275390625,-2.197265625,-0.8734130859375,9.547119140625
2021-09-22 20:21:38.383520,0.0126953125,-0.07275390625,1.02685546875,-2.1533203125,-0.94482421875,9.459228515625
2021-09-22 20:21:38.393658,0.03369140625,-0.08203125,0.9921875,-2.1038818359375,-1.065673828125,9.393310546875
2021-09-22 20:21:38.403412,0.0205078125,-0.0869140625,1.00830078125,-2.0489501953125,-1.2030029296875,9.349365234375
2021-09-22 20:21:38.413444,0.0029296875,-0.07861328125,1.07373046875,-1.9610595703125,-1.3677978515625,9.2999267578125
2021-09-22 20:21:38.423395,-0.01513671875,-0.0732421875,0.99951171875,-1.856689453125,-1.549072265625,9.2340087890625
2021-09-22 20:21:38.433275,-0.0185546875,-0.046875,0.9609375,-1.7138671875,-1.6973876953125,9.16259765625
2021-09-22 20:21:38.443336,0.00341796875,-0.0224609375,0.89013671875,-1.5545654296875,-1.8292236328125,9.0966796875
2021-09-22 20:21:38.453392,-0.00634765625,-0.001953125,0.92333984375,-1.3623046875,-1.922607421875,9.0362548828125
2021-09-22 20:21:38.463277,0.02099609375,0.00537109375,0.9248046875,-1.1370849609375,-1.99951171875,9.019775390625
2021-09-22 20:21:38.473243,0.0458984375,-0.02880859375,0.8271484375,-0.9503173828125,-2.076416015625,9.019775390625
2021-09-22 20:21:38.483231,0.029296875,-0.044921875,0.9501953125,-0.7745361328125,-2.1368408203125,8.9923095703125
2021-09-22 20:21:38.493874,0.01611328125,-0.091796875,0.9013671875,-0.6317138671875,-2.1588134765625,8.9593505859375
2021-09-22 20:21:38.503261,0.00048828125,-0.0380859375,0.95654296875,-0.494384765625,-2.164306640625,8.8824462890625
2021-09-22 20:21:38.513193,0.017578125,-0.01025390625,0.9248046875,-0.3350830078125,-2.1533203125,8.7890625
2021-09-22 20:21:38.523111,0.001953125,-0.05029296875,0.93896484375,-0.1922607421875,-2.098388671875,8.7066650390625
2021-09-22 20:21:38.532977,0.0009765625,0.01953125,1.0048828125,-0.0494384765625,-2.032470703125,8.6517333984375
2021-09-22 20:21:38.543093,0.01806640625,0.04345703125,1.0185546875,0.0604248046875,-1.9940185546875,8.602294921875
2021-09-22 20:21:38.552967,0.005859375,0.00634765625,0.998046875,0.1153564453125,-1.966552734375,8.5638427734375
2021-09-22 20:21:38.562979,0.01416015625,0.0478515625,1.025390625,0.120849609375,-1.9500732421875,8.5418701171875
2021-09-22 20:21:38.573040,0.01025390625,0.00146484375,0.947265625,0.0933837890625,-1.944580078125,8.525390625
2021-09-22 20:21:38.582974,0.02001953125,0.0166015625,1.005859375,0.0384521484375,-1.9171142578125,8.514404296875
2021-09-22 20:21:38.592910,0.0166015625,-0.0009765625,0.98779296875,-0.0274658203125,-1.878662109375,8.5198974609375
2021-09-22 20:21:38.602841,0.0107421875,-0.0166015625,0.9619140625,-0.1263427734375,-1.8292236328125,8.5198974609375
2021-09-22 20:21:38.612665,0.01806640625,0.00830078125,0.91357421875,-0.230712890625,-1.7852783203125,8.4979248046875
2021-09-22 20:21:38.622840,0.02099609375,0.00244140625,0.90576171875,-0.3460693359375,-1.73583984375,8.448486328125
2021-09-22 20:21:38.632647,-0.00830078125,-0.0390625,0.94482421875,-0.4779052734375,-1.6644287109375,8.3660888671875
2021-09-22 20:21:38.642622,0.04541015625,0.0087890625,0.92041015625,-0.5877685546875,-1.6204833984375,8.2672119140625
2021-09-22 20:21:38.652558,0.0234375,0.05224609375,0.95703125,-0.670166015625,-1.5765380859375,8.1793212890625
2021-09-22 20:21:38.662650,-0.01025390625,-0.00439453125,0.953125,-0.736083984375,-1.5106201171875,8.15185546875
2021-09-22 20:21:38.672718,-0.0087890625,-0.001953125,0.92919921875,-0.7855224609375,-1.4227294921875,8.1903076171875
2021-09-22 20:21:38.682493,0.01123046875,0.001953125,0.935546875,-0.8184814453125,-1.34033203125,8.2562255859375
2021-09-22 20:21:38.692560,0.001953125,0.0419921875,1.05078125,-0.791015625,-1.25244140625,8.3001708984375
2021-09-22 20:21:38.702517,-0.01171875,-0.009765625,1.0322265625,-0.72509765625,-1.20849609375,8.32763671875
2021-09-22 20:21:38.712419,0.03955078125,0.021484375,1.0478515625,-0.648193359375,-1.1700439453125,8.294677734375
2021-09-22 20:21:38.722330,0.04736328125,-0.00439453125,1.05517578125,-0.5712890625,-1.1590576171875,8.206787109375
2021-09-22 20:21:38.732514,0.03662109375,-0.021484375,1.017578125,-0.5108642578125,-1.1700439453125,8.1243896484375
2021-09-22 20:21:38.742389,0.06201171875,-0.03955078125,1.01220703125,-0.4449462890625,-1.2030029296875,8.0584716796875
2021-09-22 20:21:38.752285,0.044921875,-0.0400390625,1.03466796875,-0.362548828125,-1.219482421875,8.009033203125
2021-09-22 20:21:38.762152,0.017578125,-0.0322265625,1.08642578125,-0.2362060546875,-1.25244140625,7.9486083984375
2021-09-22 20:21:38.772245,0.00341796875,-0.015625,1.017578125,-0.0714111328125,-1.2908935546875,7.8717041015625
2021-09-22 20:21:38.782266,-0.00146484375,0.00830078125,0.98095703125,0.120849609375,-1.3128662109375,7.7838134765625
2021-09-22 20:21:38.792348,0.01806640625,0.02880859375,0.93701171875,0.340576171875,-1.3348388671875,7.701416015625
2021-09-22 20:21:38.802265,0.02197265625,0.0615234375,0.97607421875,0.5877685546875,-1.3458251953125,7.62451171875
2021-09-22 20:21:38.812159,0.05078125,0.05712890625,0.98046875,0.8514404296875,-1.3568115234375,7.5860595703125
2021-09-22 20:21:38.822104,0.06494140625,0.03076171875,0.904296875,1.0931396484375,-1.3787841796875,7.569580078125
2021-09-22 20:21:38.831937,0.03857421875,0.0244140625,1.02978515625,1.329345703125,-1.3787841796875,7.5311279296875
2021-09-22 20:21:38.842144,0.02197265625,-0.01904296875,0.9794921875,1.5545654296875,-1.3568115234375,7.470703125
2021-09-22 20:21:38.852034,-0.0126953125,0.04150390625,1.046875,1.7852783203125,-1.3018798828125,7.3663330078125
2021-09-22 20:21:38.861858,-0.005859375,0.07421875,1.033203125,2.0489501953125,-1.241455078125,7.239990234375
2021-09-22 20:21:38.871781,-0.00634765625,0.037109375,1.0166015625,2.318115234375,-1.1480712890625,7.1246337890625
2021-09-22 20:21:38.881900,0.00341796875,0.07373046875,1.1044921875,2.559814453125,-1.065673828125,7.03125
2021-09-22 20:21:38.891771,0.01904296875,0.10693359375,1.125,2.7630615234375,-1.0162353515625,6.9708251953125
2021-09-22 20:21:38.901820,0.00146484375,0.0693359375,1.08837890625,2.9058837890625,-0.9942626953125,6.932373046875
2021-09-22 20:21:38.911827,0.01708984375,0.09228515625,1.0908203125,2.9827880859375,-1.0107421875,6.92138671875
2021-09-22 20:21:38.921730,0.01171875,0.07763671875,1.0517578125,3.021240234375,-1.0601806640625,6.92138671875
2021-09-22 20:21:38.931741,0.0263671875,0.0888671875,1.080078125,3.0157470703125,-1.109619140625,6.943359375
2021-09-22 20:21:38.941596,0.037109375,0.05224609375,1.052734375,2.9718017578125,-1.153564453125,6.9818115234375
2021-09-22 20:21:38.951488,0.03369140625,0.03955078125,1.03564453125,2.8839111328125,-1.197509765625,7.00927734375
2021-09-22 20:21:38.961732,0.03759765625,0.06103515625,0.95947265625,2.7740478515625,-1.2249755859375,7.0147705078125
2021-09-22 20:21:38.971555,0.03857421875,0.0458984375,0.95751953125,2.6202392578125,-1.2359619140625,6.9873046875
2021-09-22 20:21:38.981415,0.0205078125,0.00341796875,0.98583984375,2.427978515625,-1.2139892578125,6.910400390625
2021-09-22 20:21:38.992047,0.05908203125,0.04541015625,0.97607421875,2.2247314453125,-1.197509765625,6.8115234375
2021-09-22 20:21:39.001250,0.06591796875,0.0830078125,0.99560546875,2.021484375,-1.1920166015625,6.7236328125
2021-09-22 20:21:39.011294,0.0263671875,0.02685546875,1.0,1.8182373046875,-1.16455078125,6.6796875
2021-09-22 20:21:39.021348,0.029296875,0.03271484375,0.96826171875,1.6259765625,-1.1260986328125,6.7071533203125
2021-09-22 20:21:39.031292,0.041015625,0.0341796875,0.97216796875,1.4501953125,-1.0711669921875,6.756591796875
2021-09-22 20:21:39.041346,0.02587890625,0.076171875,1.08203125,1.329345703125,-0.999755859375,6.800537109375
2021-09-22 20:21:39.051307,0.017578125,0.0185546875,1.04931640625,1.2469482421875,-0.94482421875,6.8280029296875
2021-09-22 20:21:39.061098,0.05859375,0.04296875,1.0654296875,1.16455078125,-0.889892578125,6.8115234375
2021-09-22 20:21:39.071411,0.064453125,0.0205078125,1.091796875,1.0931396484375,-0.845947265625,6.74560546875
2021-09-22 20:21:39.081154,0.04833984375,0.0263671875,1.03173828125,1.021728515625,-0.8184814453125,6.6851806640625
2021-09-22 20:21:39.091044,0.04931640625,0.00048828125,1.0322265625,0.9613037109375,-0.81298828125,6.6357421875
2021-09-22 20:21:39.101141,0.03857421875,0.0078125,1.0693359375,0.911865234375,-0.8074951171875,6.5972900390625
2021-09-22 20:21:39.111048,0.0126953125,0.0048828125,1.12744140625,0.9063720703125,-0.8184814453125,6.558837890625
2021-09-22 20:21:39.120920,-0.00244140625,0.00732421875,1.0439453125,0.933837890625,-0.8349609375,6.50390625
2021-09-22 20:21:39.131144,-0.01953125,0.04248046875,1.01953125,1.0052490234375,-0.8404541015625,6.4544677734375
2021-09-22 20:21:39.140831,-0.0029296875,0.05810546875,0.95166015625,1.1041259765625,-0.845947265625,6.416015625
2021-09-22 20:21:39.150956,-0.00146484375,0.08740234375,0.990234375,1.23046875,-0.8514404296875,6.405029296875
2021-09-22 20:21:39.160859,0.0185546875,0.0830078125,1.005859375,1.38427734375,-0.8624267578125,6.4434814453125
2021-09-22 20:21:39.170792,0.0439453125,0.05078125,0.9130859375,1.5106201171875,-0.8953857421875,6.5203857421875
2021-09-22 20:21:39.180719,0.02197265625,0.03466796875,1.0283203125,1.6259765625,-0.9228515625,6.5863037109375
2021-09-22 20:21:39.190815,0.00048828125,-0.0107421875,0.9833984375,1.7303466796875,-0.9228515625,6.6412353515625
2021-09-22 20:21:39.200656,-0.0283203125,0.03759765625,1.03857421875,1.812744140625,-0.9228515625,6.65771484375
2021-09-22 20:21:39.210671,-0.015625,0.0654296875,1.01416015625,1.9061279296875,-0.9173583984375,6.6522216796875
2021-09-22 20:21:39.220698,-0.017578125,0.0244140625,0.994140625,1.988525390625,-0.8953857421875,6.646728515625
2021-09-22 20:21:39.230617,-0.009765625,0.0498046875,1.0849609375,2.0269775390625,-0.8734130859375,6.668701171875
2021-09-22 20:21:39.240739,-0.00927734375,0.087890625,1.10400390625,2.0269775390625,-0.8624267578125,6.70166015625
2021-09-22 20:21:39.250454,-0.02392578125,0.03955078125,1.056640625,1.966552734375,-0.8624267578125,6.7510986328125
2021-09-22 20:21:39.260557,-0.00146484375,0.07177734375,1.0537109375,1.845703125,-0.87890625,6.8280029296875
2021-09-22 20:21:39.270534,-0.01806640625,0.02783203125,0.9931640625,1.6754150390625,-0.911865234375,6.9158935546875
2021-09-22 20:21:39.280414,0.00537109375,0.0439453125,1.03271484375,1.4666748046875,-0.9503173828125,7.00927734375
2021-09-22 20:21:39.290452,0.00732421875,0.0283203125,1.00830078125,1.23046875,-0.98876953125,7.1136474609375
2021-09-22 20:21:39.300459,-0.00048828125,0.0048828125,0.9912109375,0.9613037109375,-1.0107421875,7.2015380859375
2021-09-22 20:21:39.310319,0.00927734375,0.02099609375,0.9375,0.6976318359375,-1.0162353515625,7.2564697265625
2021-09-22 20:21:39.320240,0.0244140625,0.017578125,0.9306640625,0.428466796875,-1.0107421875,7.27294921875
2021-09-22 20:21:39.330253,0.00537109375,-0.046875,0.95361328125,0.1483154296875,-0.966796875,7.2509765625
2021-09-22 20:21:39.340220,0.052734375,-0.02294921875,0.91015625,-0.098876953125,-0.9393310546875,7.2125244140625
2021-09-22 20:21:39.350246,0.04443359375,0.037109375,0.94873046875,-0.3021240234375,-0.911865234375,7.1795654296875
2021-09-22 20:21:39.360285,0.0009765625,-0.02783203125,0.9189453125,-0.46142578125,-0.8734130859375,7.2015380859375
2021-09-22 20:21:39.370131,-0.00927734375,0.001953125,0.9208984375,-0.5712890625,-0.8184814453125,7.283935546875
2021-09-22 20:21:39.380096,0.017578125,-0.01220703125,0.9130859375,-0.6427001953125,-0.758056640625,7.3883056640625
2021-09-22 20:21:39.390004,-0.0107421875,0.041015625,1.04345703125,-0.626220703125,-0.670166015625,7.4871826171875
2021-09-22 20:21:39.400084,-0.01806640625,-0.037109375,1.01318359375,-0.5438232421875,-0.5987548828125,7.5531005859375
2021-09-22 20:21:39.410058,0.0205078125,0.00048828125,1.03564453125,-0.428466796875,-0.50537109375,7.5640869140625
2021-09-22 20:21:39.419958,0.0068359375,-0.017578125,1.04931640625,-0.2911376953125,-0.41748046875,7.525634765625
2021-09-22 20:21:39.429983,-0.0087890625,-0.02978515625,1.01220703125,-0.1593017578125,-0.3515625,7.481689453125
2021-09-22 20:21:39.439899,0.00048828125,-0.0341796875,0.99658203125,-0.02197265625,-0.3076171875,7.4322509765625
2021-09-22 20:21:39.449796,-0.015625,-0.03076171875,1.05126953125,0.1043701171875,-0.274658203125,7.393798828125
2021-09-22 20:21:39.459715,-0.015625,-0.04296875,1.10693359375,0.2581787109375,-0.2801513671875,7.3388671875
2021-09-22 20:21:39.469921,-0.03125,-0.029296875,1.041015625,0.41748046875,-0.296630859375,7.27294921875
2021-09-22 20:21:39.479741,-0.04736328125,0.00830078125,0.9990234375,0.6097412109375,-0.296630859375,7.20703125
2021-09-22 20:21:39.490381,-0.0400390625,0.03955078125,0.95654296875,0.7965087890625,-0.2911376953125,7.1466064453125
2021-09-22 20:21:39.499633,-0.05419921875,0.07568359375,1.0,0.98876953125,-0.2691650390625,7.108154296875
2021-09-22 20:21:39.509566,-0.02099609375,0.076171875,0.99609375,1.1920166015625,-0.2471923828125,7.1246337890625
2021-09-22 20:21:39.519801,0.00927734375,0.0595703125,0.91259765625,1.3623046875,-0.24169921875,7.1630859375
2021-09-22 20:21:39.529551,0.00390625,0.0322265625,1.033203125,1.4886474609375,-0.2362060546875,7.196044921875
2021-09-22 20:21:39.539652,0.0087890625,-0.02294921875,0.97509765625,1.58203125,-0.2362060546875,7.2235107421875
2021-09-22 20:21:39.549532,-0.01171875,0.0283203125,1.02734375,1.6644287109375,-0.2362060546875,7.2235107421875
2021-09-22 20:21:39.559434,-0.0029296875,0.07080078125,1.00146484375,1.7633056640625,-0.24169921875,7.2125244140625
2021-09-22 20:21:39.569367,-0.005859375,0.03369140625,0.9814453125,1.86767578125,-0.230712890625,7.218017578125
2021-09-22 20:21:39.579683,0.00927734375,0.0595703125,1.07666015625,1.95556640625,-0.2252197265625,7.2454833984375
2021-09-22 20:21:39.589506,0.0224609375,0.11083984375,1.1005859375,2.032470703125,-0.252685546875,7.294921875
2021-09-22 20:21:39.599362,0.02392578125,0.06689453125,1.0498046875,2.0709228515625,-0.296630859375,7.349853515625
2021-09-22 20:21:39.609357,0.048828125,0.095703125,1.06005859375,2.054443359375,-0.362548828125,7.4102783203125
2021-09-22 20:21:39.619252,0.0439453125,0.05322265625,1.00927734375,2.021484375,-0.450439453125,7.470703125
2021-09-22 20:21:39.629266,0.06640625,0.0654296875,1.0595703125,1.9610595703125,-0.52734375,7.5311279296875
2021-09-22 20:21:39.639152,0.08056640625,0.0380859375,1.01953125,1.8951416015625,-0.59326171875,7.5970458984375
2021-09-22 20:21:39.649039,0.07080078125,0.02099609375,1.02099609375,1.7962646484375,-0.63720703125,7.6519775390625
2021-09-22 20:21:39.659118,0.0595703125,0.0419921875,0.97021484375,1.7138671875,-0.6591796875,7.6904296875
2021-09-22 20:21:39.669201,0.05078125,0.048828125,0.9677734375,1.6314697265625,-0.6591796875,7.6959228515625
2021-09-22 20:21:39.678970,0.00390625,0.00634765625,0.9970703125,1.5325927734375,-0.6317138671875,7.657470703125
2021-09-22 20:21:39.689069,0.0283203125,0.0439453125,0.98974609375,1.4556884765625,-0.615234375,7.58056640625
2021-09-22 20:21:39.698968,0.0390625,0.09912109375,0.99462890625,1.4007568359375,-0.6317138671875,7.5091552734375
2021-09-22 20:21:39.708889,-0.009765625,0.03662109375,0.994140625,1.3623046875,-0.6427001953125,7.481689453125
2021-09-22 20:21:39.718869,-0.01171875,0.04052734375,0.97900390625,1.3348388671875,-0.63720703125,7.503662109375
2021-09-22 20:21:39.728760,0.01123046875,0.04296875,0.962890625,1.3238525390625,-0.626220703125,7.55859375
2021-09-22 20:21:39.738894,-0.0087890625,0.095703125,1.0869140625,1.3677978515625,-0.582275390625,7.5970458984375
2021-09-22 20:21:39.748718,-0.02001953125,0.02001953125,1.0517578125,1.439208984375,-0.5657958984375,7.6300048828125
2021-09-22 20:21:39.758634,0.0078125,0.04541015625,1.064453125,1.505126953125,-0.5438232421875,7.6080322265625
2021-09-22 20:21:39.768830,0.01708984375,0.04052734375,1.09423828125,1.5655517578125,-0.5438232421875,7.5421142578125
2021-09-22 20:21:39.778669,0.01123046875,0.03515625,1.02392578125,1.60400390625,-0.5877685546875,7.4761962890625
2021-09-22 20:21:39.788590,0.0205078125,0.005859375,1.02685546875,1.6259765625,-0.6591796875,7.4212646484375
2021-09-22 20:21:39.798511,0.01904296875,0.0,1.060546875,1.6259765625,-0.736083984375,7.3828125
2021-09-22 20:21:39.808212,0.0166015625,-0.00244140625,1.1083984375,1.6424560546875,-0.8349609375,7.3553466796875
2021-09-22 20:21:39.818641,0.01025390625,0.00634765625,1.03125,1.6754150390625,-0.955810546875,7.31689453125
2021-09-22 20:21:39.828436,-0.00390625,0.0419921875,0.98974609375,1.73583984375,-1.0491943359375,7.283935546875
2021-09-22 20:21:39.838500,0.01171875,0.06005859375,0.9287109375,1.8072509765625,-1.142578125,7.2564697265625
2021-09-22 20:21:39.848428,0.01611328125,0.09619140625,0.9697265625,1.900634765625,-1.2139892578125,7.2454833984375
2021-09-22 20:21:39.858391,0.03955078125,0.08740234375,0.9677734375,2.0159912109375,-1.2744140625,7.27294921875
2021-09-22 20:21:39.868404,0.0751953125,0.05908203125,0.87255859375,2.109375,-1.34033203125,7.3333740234375
2021-09-22 20:21:39.878270,0.05859375,0.03076171875,0.9853515625,2.17529296875,-1.3787841796875,7.3773193359375
2021-09-22 20:21:39.888309,0.0478515625,-0.0166015625,0.94287109375,2.2247314453125,-1.3897705078125,7.4102783203125
2021-09-22 20:21:39.898241,0.01708984375,0.021484375,0.9970703125,2.2576904296875,-1.373291015625,7.4102783203125
2021-09-22 20:21:39.908148,0.017578125,0.060546875,0.97119140625,2.3126220703125,-1.34033203125,7.3828125
2021-09-22 20:21:39.918308,0.0009765625,0.02880859375,0.9384765625,2.3675537109375,-1.2689208984375,7.36083984375
2021-09-22 20:21:39.928200,0.009765625,0.04541015625,1.04833984375,2.39501953125,-1.1920166015625,7.3553466796875
2021-09-22 20:21:39.938055,0.0068359375,0.1064453125,1.07373046875,2.406005859375,-1.131591796875,7.349853515625
2021-09-22 20:21:39.948150,0.00244140625,0.05712890625,1.01220703125,2.384033203125,-1.0821533203125,7.3388671875
2021-09-22 20:21:39.958121,0.01806640625,0.0908203125,1.03271484375,2.3016357421875,-1.0491943359375,7.3388671875
2021-09-22 20:21:39.968000,-0.005859375,0.0400390625,0.99658203125,2.2027587890625,-1.0272216796875,7.3443603515625
2021-09-22 20:21:39.977935,0.02490234375,0.06298828125,1.0390625,2.0819091796875,-1.0162353515625,7.349853515625
2021-09-22 20:21:39.988525,0.029296875,0.03125,0.9970703125,1.9500732421875,-1.0052490234375,7.371826171875
2021-09-22 20:21:39.997962,0.01611328125,0.0166015625,0.98388671875,1.7962646484375,-0.9832763671875,7.3883056640625
2021-09-22 20:21:40.007830,0.01611328125,0.0341796875,0.9453125,1.6534423828125,-0.9503173828125,7.3773193359375
2021-09-22 20:21:40.017727,0.0244140625,0.037109375,0.9345703125,1.505126953125,-0.9063720703125,7.349853515625
2021-09-22 20:21:40.027929,-0.0146484375,-0.02587890625,0.97802734375,1.3458251953125,-0.8349609375,7.294921875
2021-09-22 20:21:40.037790,0.02197265625,0.00146484375,0.9423828125,1.197509765625,-0.76904296875,7.2235107421875
2021-09-22 20:21:40.047706,0.02001953125,0.06787109375,0.96923828125,1.0986328125,-0.7196044921875,7.1575927734375
2021-09-22 20:21:40.057793,-0.0224609375,0.0029296875,0.9609375,1.021728515625,-0.6591796875,7.1356201171875
2021-09-22 20:21:40.067730,-0.0205078125,0.0224609375,0.96484375,0.9722900390625,-0.59326171875,7.1795654296875
2021-09-22 20:21:40.077681,0.0009765625,-0.00048828125,0.943359375,0.9283447265625,-0.5218505859375,7.2454833984375
2021-09-22 20:21:40.087757,-0.00830078125,0.052734375,1.04052734375,0.933837890625,-0.4229736328125,7.3004150390625
2021-09-22 20:21:40.097614,-0.03369140625,-0.009765625,1.044921875,0.966796875,-0.3350830078125,7.3333740234375
2021-09-22 20:21:40.107536,-0.00537109375,0.0048828125,1.06103515625,0.9942626953125,-0.2197265625,7.3114013671875
2021-09-22 20:21:40.117583,0.00634765625,0.0087890625,1.0888671875,1.021728515625,-0.10986328125,7.2344970703125
2021-09-22 20:21:40.127597,-0.001953125,-0.021484375,1.02099609375,1.0162353515625,-0.02197265625,7.1575927734375
2021-09-22 20:21:40.137475,0.0078125,-0.03271484375,1.00146484375,0.9942626953125,0.0274658203125,7.086181640625
2021-09-22 20:21:40.147537,-0.01220703125,-0.02783203125,1.06689453125,0.9722900390625,0.076904296875,7.0367431640625
2021-09-22 20:21:40.157461,-0.01708984375,-0.03857421875,1.1123046875,0.955810546875,0.076904296875,6.9818115234375
2021-09-22 20:21:40.167364,-0.03369140625,-0.03271484375,1.044921875,0.955810546875,0.0604248046875,6.9158935546875
2021-09-22 20:21:40.177552,-0.05126953125,0.00146484375,1.0107421875,0.98876953125,0.0494384765625,6.8499755859375
2021-09-22 20:21:40.187445,-0.02685546875,0.01708984375,0.97021484375,1.0272216796875,0.032958984375,6.778564453125
2021-09-22 20:21:40.197342,-0.02587890625,0.04541015625,0.99560546875,1.087646484375,0.02197265625,6.7236328125
2021-09-22 20:21:40.207236,0.01513671875,0.03564453125,0.99951171875,1.1700439453125,0.010986328125,6.7071533203125
2021-09-22 20:21:40.217314,0.05078125,0.00927734375,0.89404296875,1.23046875,-0.010986328125,6.7236328125
2021-09-22 20:21:40.227169,0.03564453125,-0.02392578125,1.0205078125,1.2579345703125,-0.0274658203125,6.734619140625
2021-09-22 20:21:40.236856,0.03173828125,-0.0576171875,0.97314453125,1.2799072265625,-0.0274658203125,6.7401123046875
2021-09-22 20:21:40.247091,-0.00244140625,-0.01904296875,1.03173828125,1.2908935546875,-0.0054931640625,6.7236328125
2021-09-22 20:21:40.257174,-0.0048828125,0.02294921875,1.01123046875,1.3238525390625,0.02197265625,6.6741943359375
2021-09-22 20:21:40.266728,-0.0078125,-0.013671875,0.98388671875,1.3677978515625,0.0933837890625,6.6357421875
2021-09-22 20:21:40.277166,-0.00048828125,-0.00341796875,1.1083984375,1.3897705078125,0.1702880859375,6.624755859375
2021-09-22 20:21:40.287155,0.00390625,0.05224609375,1.11962890625,1.38427734375,0.2142333984375,6.6302490234375
2021-09-22 20:21:40.297078,-0.001953125,0.00537109375,1.05224609375,1.3348388671875,0.2252197265625,6.646728515625
2021-09-22 20:21:40.306952,0.0166015625,0.02197265625,1.083984375,1.2030029296875,0.19775390625,6.6796875
2021-09-22 20:21:40.316805,-0.00244140625,-0.005859375,1.0595703125,1.0491943359375,0.1483154296875,6.7236328125
2021-09-22 20:21:40.327028,0.0224609375,0.00439453125,1.06982421875,0.867919921875,0.087890625,6.7730712890625
2021-09-22 20:21:40.336952,0.02490234375,-0.01953125,1.03173828125,0.6646728515625,0.0439453125,6.8389892578125
2021-09-22 20:21:40.346769,0.0078125,-0.03662109375,1.01953125,0.4449462890625,0.0274658203125,6.8939208984375
2021-09-22 20:21:40.356905,0.01171875,-0.02490234375,0.95458984375,0.2252197265625,0.032958984375,6.932373046875
2021-09-22 20:21:40.366793,0.025390625,-0.02099609375,0.958984375,0.0,0.0604248046875,6.9378662109375
2021-09-22 20:21:40.376675,-0.0107421875,-0.072265625,0.984375,-0.230712890625,0.1318359375,6.910400390625
2021-09-22 20:21:40.386576,0.0244140625,-0.052734375,0.9365234375,-0.4559326171875,0.2032470703125,6.85546875
2021-09-22 20:21:40.396738,0.03076171875,0.01708984375,0.95849609375,-0.648193359375,0.2581787109375,6.8060302734375
2021-09-22 20:21:40.406637,-0.01416015625,-0.0458984375,0.955078125,-0.8074951171875,0.3350830078125,6.78955078125
2021-09-22 20:21:40.416566,-0.01904296875,-0.0283203125,0.95849609375,-0.955810546875,0.41748046875,6.83349609375
2021-09-22 20:21:40.426523,-0.00146484375,-0.04345703125,0.9228515625,-1.0821533203125,0.516357421875,6.910400390625
2021-09-22 20:21:40.436574,-0.02197265625,0.02001953125,1.04541015625,-1.1480712890625,0.626220703125,6.9818115234375
2021-09-22 20:21:40.446617,-0.0537109375,-0.064453125,1.046875,-1.1810302734375,0.7305908203125,7.0257568359375
2021-09-22 20:21:40.456420,-0.01611328125,-0.03271484375,1.06005859375,-1.2030029296875,0.8349609375,7.0037841796875
2021-09-22 20:21:40.466308,-0.01611328125,-0.01806640625,1.08056640625,-1.2030029296875,0.9228515625,6.932373046875
2021-09-22 20:21:40.476439,-0.017578125,-0.06005859375,1.0283203125,-1.2139892578125,0.9832763671875,6.8499755859375
2021-09-22 20:21:40.486849,-0.005859375,-0.07666015625,0.99560546875,-1.2249755859375,1.0162353515625,6.778564453125
2021-09-22 20:21:40.496426,-0.0185546875,-0.06884765625,1.05224609375,-1.2139892578125,1.03271484375,6.7236328125
2021-09-22 20:21:40.506215,-0.0263671875,-0.0732421875,1.1005859375,-1.1700439453125,1.0052490234375,6.6741943359375
2021-09-22 20:21:40.516294,-0.052734375,-0.05078125,1.033203125,-1.087646484375,0.9613037109375,6.6082763671875
2021-09-22 20:21:40.526269,-0.05859375,-0.02734375,0.98828125,-0.9613037109375,0.9283447265625,6.5423583984375
2021-09-22 20:21:40.536206,-0.02685546875,0.0166015625,0.9765625,-0.7965087890625,0.8953857421875,6.48193359375
2021-09-22 20:21:40.546026,-0.10595703125,-0.01611328125,1.10595703125,-0.59326171875,0.9228515625,6.448974609375
2021-09-22 20:21:40.556176,0.0126953125,-0.12646484375,0.9697265625,-0.384521484375,0.889892578125,6.4654541015625
2021-09-22 20:21:40.566015,0.048828125,-0.0615234375,0.89892578125,-0.1812744140625,0.8294677734375,6.4654541015625
2021-09-22 20:21:40.575992,-0.00048828125,-0.068359375,1.08837890625,0.076904296875,0.802001953125,6.427001953125
2021-09-22 20:21:40.586048,-0.00537109375,-0.04150390625,0.92333984375,0.3240966796875,0.7635498046875,6.3720703125
2021-09-22 20:21:40.595929,-0.013671875,0.0458984375,0.99609375,0.5877685546875,0.7415771484375,6.295166015625
2021-09-22 20:21:40.606054,-0.0087890625,0.03369140625,1.056640625,0.8294677734375,0.7305908203125,6.229248046875
2021-09-22 20:21:40.616010,0.033203125,-0.01416015625,1.08056640625,0.955810546875,0.72509765625,6.1798095703125
2021-09-22 20:21:40.625913,0.09521484375,0.05322265625,1.189453125,0.9228515625,0.7086181640625,6.1688232421875
2021-09-22 20:21:40.635804,0.10888671875,0.1845703125,1.31787109375,0.7305908203125,0.670166015625,6.2127685546875
2021-09-22 20:21:40.645812,-0.01513671875,0.0595703125,1.08935546875,0.50537109375,0.538330078125,6.273193359375
2021-09-22 20:21:40.655840,0.01513671875,0.04638671875,1.0556640625,0.2801513671875,0.3900146484375,6.3116455078125
2021-09-22 20:21:40.665823,0.01904296875,0.01171875,0.98974609375,0.1318359375,0.208740234375,6.3336181640625
2021-09-22 20:21:40.675671,-0.00244140625,-0.00927734375,0.94482421875,-0.0054931640625,0.0494384765625,6.35009765625
2021-09-22 20:21:40.685787,0.01220703125,-0.01171875,0.859375,-0.1593017578125,-0.0494384765625,6.39404296875
2021-09-22 20:21:40.695331,-0.0146484375,-0.02197265625,0.96630859375,-0.3076171875,-0.1043701171875,6.4599609375
2021-09-22 20:21:40.705563,0.025390625,-0.0087890625,0.83251953125,-0.46142578125,-0.15380859375,6.536865234375
2021-09-22 20:21:40.715572,0.02099609375,0.00048828125,0.8779296875,-0.626220703125,-0.1812744140625,6.580810546875
2021-09-22 20:21:40.725654,-0.00341796875,-0.02880859375,0.81396484375,-0.780029296875,-0.1812744140625,6.5863037109375
2021-09-22 20:21:40.735526,0.0068359375,-0.0068359375,0.8720703125,-0.9228515625,-0.1922607421875,6.558837890625
2021-09-22 20:21:40.745432,-0.0029296875,0.02001953125,0.8291015625,-1.03271484375,-0.2032470703125,6.5093994140625
2021-09-22 20:21:40.755408,-0.02685546875,-0.01025390625,0.79833984375,-1.1260986328125,-0.186767578125,6.48193359375
2021-09-22 20:21:40.765409,-0.04248046875,-0.00927734375,0.86083984375,-1.1920166015625,-0.142822265625,6.50390625
2021-09-22 20:21:40.775434,-0.03173828125,-0.001953125,0.80322265625,-1.219482421875,-0.06591796875,6.558837890625
2021-09-22 20:21:40.785317,-0.06396484375,0.01953125,0.87109375,-1.197509765625,0.0604248046875,6.61376953125
2021-09-22 20:21:40.795222,-0.0654296875,-0.0439453125,0.87353515625,-1.131591796875,0.208740234375,6.6357421875
2021-09-22 20:21:40.805141,-0.06201171875,-0.015625,0.96533203125,-1.0382080078125,0.406494140625,6.5972900390625
2021-09-22 20:21:40.815201,-0.0556640625,0.01953125,0.94091796875,-0.9173583984375,0.6317138671875,6.4984130859375
2021-09-22 20:21:40.825245,-0.01220703125,-0.03662109375,0.84130859375,-0.780029296875,0.8404541015625,6.383056640625
2021-09-22 20:21:40.835086,0.01953125,-0.10009765625,0.916015625,-0.63720703125,1.0382080078125,6.251220703125
2021-09-22 20:21:40.844978,0.0263671875,0.0595703125,1.1630859375,-0.59326171875,1.0601806640625,6.163330078125
2021-09-22 20:21:40.855063,0.09765625,0.1376953125,1.77197265625,-0.6097412109375,0.977783203125,6.15234375
2021-09-22 20:21:40.864946,-0.00146484375,0.14306640625,1.8935546875,-0.6207275390625,0.791015625,6.163330078125
2021-09-22 20:21:40.874909,0.08447265625,-0.0146484375,1.5888671875,-0.3240966796875,0.5328369140625,6.1798095703125
2021-09-22 20:21:40.884873,0.07763671875,-0.05712890625,1.6689453125,-0.02197265625,0.1812744140625,6.17431640625
2021-09-22 20:21:40.894915,-0.18115234375,0.0048828125,1.38818359375,0.0604248046875,-0.142822265625,6.1578369140625
2021-09-22 20:21:40.904845,-0.05078125,-0.10986328125,0.96435546875,0.186767578125,-0.4339599609375,6.0919189453125
2021-09-22 20:21:40.914757,-0.0830078125,-0.06005859375,0.73193359375,0.28564453125,-0.6427001953125,5.9710693359375
2021-09-22 20:21:40.924634,0.06884765625,-0.06005859375,0.76611328125,0.41748046875,-0.6976318359375,5.789794921875
2021-09-22 20:21:40.934717,-0.00439453125,0.06396484375,0.79296875,0.4998779296875,-0.7470703125,5.614013671875
2021-09-22 20:21:40.944729,0.00244140625,-0.02392578125,0.72314453125,0.6427001953125,-0.76904296875,5.47119140625
2021-09-22 20:21:40.954623,0.013671875,0.06640625,0.640625,0.703125,-0.791015625,5.3997802734375
2021-09-22 20:21:40.964502,0.078125,0.04150390625,0.83837890625,0.72509765625,-0.780029296875,5.394287109375
2021-09-22 20:21:40.974444,0.07568359375,0.103515625,0.953125,0.6317138671875,-0.7470703125,5.4547119140625
2021-09-22 20:21:40.985205,0.08056640625,0.2392578125,0.56884765625,0.37353515625,-0.68115234375,5.5755615234375
2021-09-22 20:21:40.994510,0.14794921875,0.177734375,1.01318359375,0.1483154296875,-0.63720703125,5.723876953125
2021-09-22 20:21:41.004401,0.123046875,0.15283203125,1.26904296875,0.010986328125,-0.5548095703125,5.8447265625
2021-09-22 20:21:41.014486,0.11572265625,0.1015625,0.8740234375,0.0164794921875,-0.5712890625,5.965576171875
2021-09-22 20:21:41.024255,0.30517578125,0.115234375,1.50048828125,0.032958984375,-0.54931640625,6.1248779296875
2021-09-22 20:21:41.034292,0.0771484375,0.1474609375,0.88671875,-0.0164794921875,-0.50537109375,6.3226318359375
2021-09-22 20:21:41.044277,0.1533203125,0.00390625,0.88720703125,-0.02197265625,-0.50537109375,6.602783203125
2021-09-22 20:21:41.054195,0.08837890625,0.10400390625,1.17529296875,-0.0933837890625,-0.406494140625,6.9049072265625
2021-09-22 20:21:41.064234,-0.021484375,0.03173828125,0.7294921875,-0.02197265625,-0.318603515625,7.18505859375
2021-09-22 20:21:41.074178,0.06103515625,-0.05908203125,0.83251953125,0.076904296875,-0.1483154296875,7.4432373046875
2021-09-22 20:21:41.084066,0.00390625,0.013671875,0.8125,0.164794921875,0.1153564453125,7.657470703125
2021-09-22 20:21:41.094247,0.001953125,-0.05078125,0.58056640625,0.2801513671875,0.4010009765625,7.84423828125
2021-09-22 20:21:41.104335,-0.1220703125,-0.04248046875,1.05859375,0.2252197265625,0.7196044921875,7.9925537109375
2021-09-22 20:21:41.114045,0.029296875,0.0224609375,1.1904296875,0.06591796875,0.999755859375,8.096923828125
2021-09-22 20:21:41.124155,0.029296875,0.0224609375,1.1904296875,-0.0933837890625,1.2799072265625,8.2012939453125
2021-09-22 20:21:41.134018,-0.056640625,0.306640625,1.06640625,-0.274658203125,1.373291015625,8.316650390625
2021-09-22 20:21:41.144140,-0.1630859375,0.13623046875,1.15185546875,-0.2032470703125,1.3128662109375,8.514404296875
2021-09-22 20:21:41.153913,-0.15087890625,0.02685546875,1.02685546875,-0.3570556640625,1.131591796875,8.76708984375
2021-09-22 20:21:41.164025,-0.00537109375,0.10791015625,0.85009765625,-0.8349609375,1.0052490234375,8.98681640625
2021-09-22 20:21:41.173889,0.36279296875,0.1298828125,1.2236328125,-1.2139892578125,0.9942626953125,9.1131591796875
2021-09-22 20:21:41.183945,0.4716796875,0.10498046875,1.474609375,-1.2689208984375,0.9283447265625,9.1351318359375
2021-09-22 20:21:41.193849,0.41357421875,0.03564453125,1.2392578125,-1.0711669921875,0.59326171875,9.1021728515625
2021-09-22 20:21:41.203880,0.37841796875,0.080078125,1.20703125,-0.81298828125,0.032958984375,9.0582275390625
2021-09-22 20:21:41.213963,0.28515625,0.05322265625,1.1640625,-0.4669189453125,-0.6536865234375,9.03076171875
2021-09-22 20:21:41.223706,0.1533203125,-0.07861328125,1.09814453125,-0.0439453125,-1.417236328125,9.019775390625
2021-09-22 20:21:41.234377,0.111328125,-0.33837890625,1.21484375,0.3460693359375,-2.1368408203125,9.0252685546875
2021-09-22 20:21:41.243651,-0.23974609375,-0.11572265625,1.10009765625,0.4119873046875,-2.603759765625,9.0252685546875
2021-09-22 20:21:41.253748,-0.39306640625,-0.26904296875,0.9658203125,0.46142578125,-2.6971435546875,8.96484375
2021-09-22 20:21:41.263710,-0.30419921875,0.04736328125,0.787109375,0.2252197265625,-2.318115234375,8.85498046875
2021-09-22 20:21:41.273600,-0.193359375,-0.13232421875,0.57568359375,0.120849609375,-1.5765380859375,8.701171875
2021-09-22 20:21:41.283663,-0.15576171875,-0.03125,0.73779296875,0.0714111328125,-0.8953857421875,8.525390625
2021-09-22 20:21:41.293444,-0.1435546875,-0.09033203125,1.11279296875,0.28564453125,-0.4119873046875,8.316650390625
2021-09-22 20:21:41.303648,-0.3310546875,-0.32080078125,1.1171875,0.5767822265625,-0.076904296875,8.0584716796875
2021-09-22 20:21:41.313667,-0.19677734375,-0.07421875,1.08935546875,0.6646728515625,0.1812744140625,7.7838134765625
2021-09-22 20:21:41.323419,0.08935546875,0.11962890625,0.72900390625,0.90087890625,0.362548828125,7.58056640625
2021-09-22 20:21:41.333265,0.263671875,-0.072265625,0.634765625,1.3458251953125,0.4779052734375,7.5146484375
2021-09-22 20:21:41.343407,0.25,-0.0048828125,1.48828125,1.34033203125,0.5548095703125,7.547607421875
2021-09-22 20:21:41.353281,0.595703125,0.13623046875,1.19091796875,0.977783203125,0.5548095703125,7.646484375
2021-09-22 20:21:41.363405,0.74365234375,0.1767578125,1.041015625,0.5712890625,0.2252197265625,7.7838134765625
2021-09-22 20:21:41.373304,0.60009765625,0.00341796875,1.16943359375,0.37353515625,-0.5108642578125,7.987060546875
2021-09-22 20:21:41.383414,0.43505859375,-0.03076171875,1.09814453125,0.0823974609375,-1.4666748046875,8.23974609375
2021-09-22 20:21:41.393296,0.291015625,-0.00244140625,0.92041015625,-0.50537109375,-2.449951171875,8.50341796875
2021-09-22 20:21:41.403219,-0.01416015625,0.4873046875,0.69677734375,-1.307373046875,-3.394775390625,8.756103515625
2021-09-22 20:21:41.413203,-0.46142578125,0.2333984375,1.802734375,-1.6424560546875,-4.207763671875,8.9923095703125
2021-09-22 20:21:41.423073,-0.5751953125,-0.01171875,1.65283203125,-1.6204833984375,-4.4769287109375,9.228515625
2021-09-22 20:21:41.433151,-0.43359375,0.00634765625,1.02392578125,-1.593017578125,-4.2132568359375,9.393310546875
2021-09-22 20:21:41.443099,-0.1572265625,-0.17822265625,0.60302734375,-1.3677978515625,-3.3673095703125,9.4976806640625
2021-09-22 20:21:41.453079,0.0341796875,0.10986328125,0.12109375,-1.197509765625,-2.427978515625,9.55810546875
2021-09-22 20:21:41.463062,0.05908203125,0.013671875,0.07177734375,-0.72509765625,-1.5325927734375,9.47021484375
2021-09-22 20:21:41.472869,-0.162109375,-0.32861328125,0.40673828125,-0.2142333984375,-0.6756591796875,9.2779541015625
2021-09-22 20:21:41.483613,0.138671875,-0.03369140625,1.05712890625,-0.274658203125,0.2362060546875,9.129638671875
2021-09-22 20:21:41.492676,0.40185546875,0.40673828125,1.55322265625,-0.4888916015625,0.780029296875,9.1845703125
2021-09-22 20:21:41.502756,0.05419921875,0.13427734375,2.2265625,-0.3350830078125,0.7525634765625,9.5196533203125
2021-09-22 20:21:41.512801,-0.1953125,0.2119140625,1.85888671875,-0.37353515625,0.2691650390625,10.074462890625
2021-09-22 20:21:41.522827,0.0458984375,0.03662109375,1.51513671875,-0.3350830078125,-0.164794921875,10.6512451171875
2021-09-22 20:21:41.532696,0.1865234375,0.05908203125,1.14453125,-0.3076171875,-0.6591796875,11.0906982421875
2021-09-22 20:21:41.542601,0.353515625,-0.13623046875,1.53173828125,-0.02197265625,-1.1590576171875,11.304931640625
2021-09-22 20:21:41.552536,0.3486328125,-0.13427734375,1.404296875,0.318603515625,-1.82373046875,11.3104248046875
2021-09-22 20:21:41.562443,0.27099609375,-0.2841796875,1.47314453125,0.6646728515625,-2.6641845703125,11.1895751953125
2021-09-22 20:21:41.572673,-0.25732421875,-0.15576171875,1.03564453125,0.8624267578125,-3.262939453125,11.0247802734375
2021-09-22 20:21:41.582467,-0.20751953125,-0.396484375,1.33349609375,1.197509765625,-3.6639404296875,10.755615234375
2021-09-22 20:21:41.592572,-0.3251953125,0.00830078125,1.11962890625,1.0162353515625,-3.5595703125,10.426025390625
2021-09-22 20:21:41.602488,-0.24658203125,-0.0498046875,0.56103515625,0.8624267578125,-3.05419921875,9.99755859375
2021-09-22 20:21:41.612355,-0.02197265625,0.1474609375,0.138671875,0.54931640625,-2.30712890625,9.5306396484375
2021-09-22 20:21:41.622676,-0.0849609375,0.115234375,0.4755859375,0.32958984375,-1.4886474609375,9.107666015625
2021-09-22 20:21:41.632274,-0.0986328125,-0.05419921875,0.982421875,0.3900146484375,-0.8074951171875,8.6956787109375
2021-09-22 20:21:41.642319,-0.23291015625,-0.09033203125,1.15869140625,0.4888916015625,-0.3240966796875,8.3660888671875
2021-09-22 20:21:41.652274,-0.3173828125,-0.3046875,1.13916015625,0.6866455078125,-0.0164794921875,8.0804443359375
2021-09-22 20:21:41.662310,-0.18994140625,0.0009765625,1.17041015625,0.72509765625,0.1922607421875,7.833251953125
2021-09-22 20:21:41.672255,0.10107421875,0.04296875,0.77099609375,1.0546875,0.2691650390625,7.7178955078125
2021-09-22 20:21:41.682165,0.22509765625,-0.01513671875,0.76416015625,1.4556884765625,0.296630859375,7.7947998046875
2021-09-22 20:21:41.692239,0.27099609375,-0.02099609375,1.34716796875,1.4117431640625,0.3131103515625,8.0364990234375
2021-09-22 20:21:41.702161,0.57763671875,0.20556640625,1.123046875,0.955810546875,0.2581787109375,8.3660888671875
2021-09-22 20:21:41.712050,0.73681640625,0.22705078125,0.94921875,0.582275390625,-0.1373291015625,8.7396240234375
2021-09-22 20:21:41.722139,0.556640625,0.02490234375,0.97900390625,0.4559326171875,-0.9722900390625,9.1571044921875
2021-09-22 20:21:41.732174,0.375,-0.02294921875,1.14013671875,0.1812744140625,-2.0050048828125,9.5965576171875
2021-09-22 20:21:41.742024,0.25146484375,0.05712890625,0.88037109375,-0.46142578125,-3.01025390625,10.008544921875
2021-09-22 20:21:41.751887,-0.2568359375,0.3095703125,1.0673828125,-1.2799072265625,-3.966064453125,10.34912109375
2021-09-22 20:21:41.761811,-0.3818359375,0.06884765625,1.83544921875,-1.4117431640625,-4.6197509765625,10.6512451171875
2021-09-22 20:21:41.771737,-0.4765625,0.27490234375,0.95947265625,-1.4447021484375,-4.7406005859375,10.8544921875
2021-09-22 20:21:41.781912,-0.3203125,-0.0927734375,0.96435546875,-1.307373046875,-4.37255859375,10.9039306640625
2021-09-22 20:21:41.791819,-0.03515625,0.03515625,0.5732421875,-1.131591796875,-3.5101318359375,10.865478515625
2021-09-22 20:21:41.801686,0.11376953125,0.2060546875,0.2490234375,-0.911865234375,-2.5762939453125,10.7281494140625
2021-09-22 20:21:41.811923,-0.0556640625,-0.03125,0.234375,-0.362548828125,-1.73583984375,10.4205322265625
2021-09-22 20:21:41.821649,-0.16064453125,-0.33935546875,0.00830078125,0.0823974609375,-0.802001953125,10.04150390625
2021-09-22 20:21:41.831728,0.2705078125,0.22021484375,0.82666015625,-0.06591796875,0.0933837890625,9.7393798828125
2021-09-22 20:21:41.841802,0.3583984375,0.3291015625,1.150390625,-0.164794921875,0.560302734375,9.6185302734375
2021-09-22 20:21:41.851818,-0.04833984375,0.23046875,2.078125,-0.1318359375,0.41748046875,9.82177734375
2021-09-22 20:21:41.861502,-0.189453125,0.1767578125,1.537109375,-0.0933837890625,-0.06591796875,10.2996826171875
2021-09-22 20:21:41.871451,0.08837890625,0.04638671875,1.52392578125,-0.010986328125,-0.5877685546875,10.87646484375
2021-09-22 20:21:41.881531,0.16552734375,0.03759765625,1.04150390625,0.02197265625,-1.142578125,11.3323974609375
2021-09-22 20:21:41.891202,0.341796875,-0.17333984375,1.564453125,0.318603515625,-1.702880859375,11.568603515625
2021-09-22 20:21:41.901434,0.2900390625,-0.15478515625,1.45947265625,0.6591796875,-2.4114990234375,11.590576171875
2021-09-22 20:21:41.911343,0.2353515625,-0.3681640625,1.439453125,1.021728515625,-3.251953125,11.480712890625
2021-09-22 20:21:41.921259,-0.220703125,-0.14501953125,1.00732421875,1.1920166015625,-3.8616943359375,11.3214111328125
2021-09-22 20:21:41.931148,-0.2021484375,-0.33447265625,1.50244140625,1.4666748046875,-4.2242431640625,11.09619140625
2021-09-22 20:21:41.941251,-0.2705078125,-0.0224609375,1.224609375,1.285400390625,-4.1143798828125,10.799560546875
2021-09-22 20:21:41.951278,-0.22314453125,-0.06298828125,0.73291015625,1.0931396484375,-3.5595703125,10.3875732421875
2021-09-22 20:21:41.961283,0.02734375,0.04931640625,0.04296875,0.714111328125,-2.7960205078125,9.9371337890625
2021-09-22 20:21:41.971389,-0.1005859375,0.138671875,0.3408203125,0.3515625,-1.9061279296875,9.4976806640625
2021-09-22 20:21:41.981964,-0.125,-0.09423828125,0.6689453125,0.3900146484375,-1.065673828125,9.0472412109375
2021-09-22 20:21:41.990984,-0.09765625,-0.02880859375,1.3154296875,0.4559326171875,-0.37353515625,8.646240234375
2021-09-22 20:21:42.001299,-0.2509765625,-0.265625,1.3447265625,0.68115234375,0.0604248046875,8.2891845703125
2021-09-22 20:21:42.011069,-0.19091796875,-0.16845703125,1.22705078125,0.7635498046875,0.274658203125,7.987060546875
2021-09-22 20:21:42.021043,0.1650390625,0.0927734375,1.04833984375,0.94482421875,0.340576171875,7.7947998046875
2021-09-22 20:21:42.030845,0.30517578125,-0.046875,0.63916015625,1.29638671875,0.230712890625,7.8057861328125
2021-09-22 20:21:42.040946,0.30126953125,-0.12060546875,1.162109375,1.318359375,0.0933837890625,8.031005859375
2021-09-22 20:21:42.050847,0.4736328125,0.14404296875,1.12548828125,0.81298828125,-0.1263427734375,8.360595703125
2021-09-22 20:21:42.061105,0.71484375,0.2373046875,0.8984375,0.28564453125,-0.604248046875,8.7615966796875
2021-09-22 20:21:42.070934,0.533203125,0.1083984375,0.8115234375,-0.0054931640625,-1.5325927734375,9.217529296875
2021-09-22 20:21:42.080812,0.3388671875,-0.0478515625,1.11572265625,-0.274658203125,-2.6861572265625,9.7064208984375
2021-09-22 20:21:42.090534,0.1708984375,0.05029296875,0.8564453125,-0.9393310546875,-3.8397216796875,10.1678466796875
2021-09-22 20:21:42.100669,-0.33154296875,0.396484375,1.26953125,-1.7523193359375,-4.8944091796875,10.546875
2021-09-22 20:21:42.110962,-0.38671875,-0.06884765625,2.03173828125,-1.8951416015625,-5.51513671875,10.909423828125
2021-09-22 20:21:42.120804,-0.51220703125,0.1162109375,0.74951171875,-2.0159912109375,-5.592041015625,11.1566162109375
2021-09-22 20:21:42.130682,-0.27880859375,-0.14013671875,0.9775390625,-1.8402099609375,-5.1416015625,11.260986328125
2021-09-22 20:21:42.140608,0.01123046875,-0.001953125,0.4228515625,-1.658935546875,-4.251708984375,11.2774658203125
2021-09-22 20:21:42.150643,0.10302734375,0.15576171875,0.38818359375,-1.373291015625,-3.2794189453125,11.1895751953125
2021-09-22 20:21:42.160513,-0.06640625,-0.10205078125,0.19677734375,-0.7965087890625,-2.427978515625,10.9588623046875
2021-09-22 20:21:42.170583,-0.26904296875,-0.1279296875,-0.01806640625,-0.362548828125,-1.47216796875,10.6951904296875
2021-09-22 20:21:42.180493,0.201171875,-0.02978515625,0.541015625,-0.10986328125,-0.3570556640625,10.447998046875
2021-09-22 20:21:42.190556,0.3564453125,0.3408203125,0.9990234375,-0.230712890625,0.4229736328125,10.3985595703125
2021-09-22 20:21:42.200603,0.15576171875,0.18994140625,1.99755859375,-0.24169921875,0.4998779296875,10.6072998046875
2021-09-22 20:21:42.210466,-0.2216796875,0.22607421875,1.85009765625,-0.19775390625,0.02197265625,11.1236572265625
2021-09-22 20:21:42.220395,-0.03515625,0.056640625,1.35693359375,0.0,-0.5548095703125,11.7938232421875
2021-09-22 20:21:42.230299,0.15185546875,-0.01806640625,0.96435546875,0.0933837890625,-1.2249755859375,12.3980712890625
2021-09-22 20:21:42.239856,0.27783203125,-0.01708984375,1.3642578125,0.2362060546875,-1.9775390625,12.755126953125
2021-09-22 20:21:42.250475,0.33544921875,-0.46875,1.2958984375,0.736083984375,-2.7740478515625,12.8265380859375
2021-09-22 20:21:42.260234,0.1962890625,-0.28955078125,1.57763671875,1.0601806640625,-3.62548828125,12.744140625
2021-09-22 20:21:42.270143,-0.12158203125,-0.14404296875,0.734375,1.3128662109375,-4.317626953125,12.50244140625
2021-09-22 20:21:42.280052,-0.33349609375,-0.3720703125,1.34765625,1.5985107421875,-4.691162109375,12.1234130859375
2021-09-22 20:21:42.290101,-0.19580078125,0.017578125,1.2568359375,1.373291015625,-4.6087646484375,11.66748046875
2021-09-22 20:21:42.300157,-0.1826171875,-0.0986328125,0.654296875,1.2799072265625,-4.06494140625,11.107177734375
2021-09-22 20:21:42.310016,-0.0654296875,0.1474609375,0.1865234375,0.9393310546875,-3.3013916015625,10.5194091796875
2021-09-22 20:21:42.320044,-0.10498046875,0.22119140625,0.1865234375,0.59326171875,-2.384033203125,9.8876953125
2021-09-22 20:21:42.330111,-0.1240234375,0.16796875,0.77734375,0.4559326171875,-1.4117431640625,9.2559814453125
2021-09-22 20:21:42.339885,-0.00146484375,-0.00244140625,1.06591796875,0.63720703125,-0.560302734375,8.6077880859375
2021-09-22 20:21:42.349958,-0.0703125,-0.17236328125,1.5400390625,0.8349609375,-0.0604248046875,8.0364990234375
2021-09-22 20:21:42.359934,-0.12841796875,-0.255859375,1.328125,1.0382080078125,0.15380859375,7.569580078125
2021-09-22 20:21:42.369928,0.12060546875,0.041015625,1.11962890625,1.0986328125,0.2032470703125,7.196044921875
2021-09-22 20:21:42.379726,0.31396484375,0.07763671875,0.8115234375,1.285400390625,0.032958984375,7.042236328125
2021-09-22 20:21:42.389854,0.3525390625,-0.09912109375,1.0048828125,1.4117431640625,-0.1922607421875,7.1575927734375
2021-09-22 20:21:42.399711,0.404296875,0.1083984375,1.35009765625,0.999755859375,-0.5438232421875,7.470703125
2021-09-22 20:21:42.409822,0.60791015625,0.25,0.822265625,0.4339599609375,-1.0162353515625,7.88818359375
2021-09-22 20:21:42.419901,0.513671875,0.205078125,0.939453125,-0.010986328125,-1.900634765625,8.382568359375
2021-09-22 20:21:42.429739,0.31884765625,0.0146484375,0.984375,-0.296630859375,-3.01025390625,8.9373779296875
2021-09-22 20:21:42.439589,0.16162109375,0.08642578125,0.9013671875,-0.87890625,-4.1748046875,9.4757080078125
2021-09-22 20:21:42.449479,-0.412109375,0.3388671875,1.04638671875,-1.6314697265625,-5.2294921875,9.942626953125
2021-09-22 20:21:42.459565,-0.42529296875,-0.021484375,1.92919921875,-1.77978515625,-5.7952880859375,10.3656005859375
2021-09-22 20:21:42.469502,-0.42822265625,0.16455078125,0.75244140625,-1.922607421875,-5.7403564453125,10.6842041015625
2021-09-22 20:21:42.480233,-0.2470703125,-0.1064453125,1.0283203125,-1.7633056640625,-5.2130126953125,10.8544921875
2021-09-22 20:21:42.489378,0.04736328125,-0.0703125,0.41845703125,-1.5216064453125,-4.3011474609375,10.9423828125
2021-09-22 20:21:42.499253,0.076171875,0.1552734375,0.37353515625,-1.20849609375,-3.2958984375,10.9149169921875
2021-09-22 20:21:42.509332,-0.02783203125,-0.11328125,0.20068359375,-0.582275390625,-2.4224853515625,10.733642578125
2021-09-22 20:21:42.519447,-0.2626953125,-0.22998046875,-0.060546875,-0.1373291015625,-1.4447021484375,10.513916015625
2021-09-22 20:21:42.529357,0.1796875,0.06689453125,1.37158203125,-0.010986328125,-0.3460693359375,10.3106689453125
2021-09-22 20:21:42.539345,0.4462890625,0.37841796875,1.35986328125,-0.1318359375,0.340576171875,10.294189453125
2021-09-22 20:21:42.549413,0.09326171875,0.19873046875,2.34912109375,-0.076904296875,0.3131103515625,10.5413818359375
2021-09-22 20:21:42.559281,-0.24609375,0.16162109375,1.73046875,-0.0164794921875,-0.2032470703125,11.0797119140625
2021-09-22 20:21:42.569200,-0.0390625,0.025390625,1.177734375,0.0823974609375,-0.791015625,11.77734375
2021-09-22 20:21:42.579102,0.13330078125,-0.02001953125,0.94384765625,0.1043701171875,-1.439208984375,12.381591796875
2021-09-22 20:21:42.589033,0.27734375,-0.08154296875,1.349609375,0.230712890625,-2.098388671875,12.7056884765625
2021-09-22 20:21:42.599117,0.32177734375,-0.26611328125,1.35009765625,0.670166015625,-2.7850341796875,12.744140625
2021-09-22 20:21:42.609185,0.27734375,-0.43798828125,1.4931640625,1.0162353515625,-3.6199951171875,12.5958251953125
2021-09-22 20:21:42.619131,-0.1884765625,-0.11865234375,0.8291015625,1.131591796875,-4.2791748046875,12.3321533203125
2021-09-22 20:21:42.628877,-0.23193359375,-0.39892578125,1.390625,1.4501953125,-4.6307373046875,11.9586181640625
2021-09-22 20:21:42.638966,-0.1767578125,-0.0078125,1.26025390625,1.20849609375,-4.4879150390625,11.53564453125
2021-09-22 20:21:42.648875,-0.14208984375,-0.08935546875,0.70703125,1.043701171875,-3.9385986328125,11.0247802734375
2021-09-22 20:21:42.658749,-0.03125,0.10400390625,0.125,0.6976318359375,-3.1695556640625,10.48095703125
2021-09-22 20:21:42.669002,-0.10009765625,0.10302734375,0.3642578125,0.406494140625,-2.2247314453125,9.942626953125
2021-09-22 20:21:42.678827,-0.13525390625,-0.05078125,0.5791015625,0.4559326171875,-1.318359375,9.4097900390625
2021-09-22 20:21:42.688732,-0.02294921875,0.00244140625,1.3974609375,0.5712890625,-0.5712890625,8.9263916015625
2021-09-22 20:21:42.698824,-0.2568359375,-0.22021484375,1.49365234375,0.8624267578125,-0.1153564453125,8.5198974609375
2021-09-22 20:21:42.708767,-0.21435546875,-0.1728515625,1.15673828125,0.98876953125,0.098876953125,8.2012939453125
2021-09-22 20:21:42.718684,0.16455078125,0.13525390625,0.9990234375,1.153564453125,0.2142333984375,8.0035400390625
2021-09-22 20:21:42.728766,0.30859375,-0.029296875,0.6083984375,1.5106201171875,0.142822265625,8.0145263671875
2021-09-22 20:21:42.738733,0.287109375,-0.12451171875,1.12841796875,1.56005859375,0.02197265625,8.23974609375
2021-09-22 20:21:42.748561,0.48193359375,0.1640625,1.0205078125,1.109619140625,-0.15380859375,8.5968017578125
2021-09-22 20:21:42.758630,0.70751953125,0.25390625,0.87548828125,0.615234375,-0.59326171875,9.0087890625
2021-09-22 20:21:42.768706,0.52685546875,0.1064453125,0.8984375,0.3131103515625,-1.461181640625,9.47021484375
2021-09-22 20:21:42.778609,0.3623046875,-0.0087890625,1.0556640625,0.0384521484375,-2.559814453125,9.9700927734375
2021-09-22 20:21:42.788532,0.1650390625,0.06103515625,0.97216796875,-0.582275390625,-3.6749267578125,10.4315185546875
2021-09-22 20:21:42.798506,-0.26318359375,0.318359375,1.0166015625,-1.4007568359375,-4.6966552734375,10.810546875
2021-09-22 20:21:42.808427,-0.39306640625,0.080078125,1.93310546875,-1.593017578125,-5.3778076171875,11.151123046875
2021-09-22 20:21:42.818363,-0.53271484375,0.19775390625,1.1650390625,-1.6259765625,-5.4437255859375,11.392822265625
2021-09-22 20:21:42.828305,-0.294921875,-0.0888671875,0.99755859375,-1.527099609375,-4.9822998046875,11.5191650390625
2021-09-22 20:21:42.838340,0.029296875,-0.01025390625,0.55517578125,-1.307373046875,-4.04296875,11.5631103515625
2021-09-22 20:21:42.848026,0.140625,0.1865234375,0.32861328125,-1.0162353515625,-3.0596923828125,11.5081787109375
2021-09-22 20:21:42.858406,0.00048828125,-0.03857421875,0.15478515625,-0.41748046875,-2.208251953125,11.2884521484375
2021-09-22 20:21:42.868356,-0.30810546875,-0.31201171875,-0.0537109375,0.0604248046875,-1.2744140625,11.0247802734375
2021-09-22 20:21:42.878225,0.1279296875,-0.02392578125,1.2392578125,0.10986328125,-0.2471923828125,10.78857421875
2021-09-22 20:21:42.888064,0.42529296875,0.4306640625,1.22607421875,-0.164794921875,0.4339599609375,10.733642578125
2021-09-22 20:21:42.898307,0.1142578125,0.2197265625,2.3662109375,-0.1318359375,0.4888916015625,10.9588623046875
2021-09-22 20:21:42.908069,-0.130859375,0.21923828125,1.8515625,-0.098876953125,0.06591796875,11.4752197265625
2021-09-22 20:21:42.917936,0.05419921875,0.0625,1.34716796875,0.0164794921875,-0.4559326171875,12.12890625
2021-09-22 20:21:42.927947,0.18115234375,0.0537109375,1.02197265625,0.076904296875,-1.0986328125,12.6837158203125
2021-09-22 20:21:42.937886,0.2705078125,-0.0771484375,1.40576171875,0.2911376953125,-1.77978515625,12.9913330078125
2021-09-22 20:21:42.947797,0.33349609375,-0.2099609375,1.39990234375,0.7470703125,-2.515869140625,13.02978515625
2021-09-22 20:21:42.957874,0.28125,-0.40869140625,1.47705078125,1.153564453125,-3.3837890625,12.8924560546875
2021-09-22 20:21:42.967907,-0.2099609375,-0.14208984375,0.943359375,1.2908935546875,-4.097900390625,12.667236328125
2021-09-22 20:21:42.978458,-0.21875,-0.42138671875,1.298828125,1.64794921875,-4.559326171875,12.3431396484375
2021-09-22 20:21:42.987822,-0.2802734375,-0.001953125,1.32373046875,1.47216796875,-4.482421875,11.9586181640625
2021-09-22 20:21:42.997687,-0.22802734375,-0.07470703125,0.642578125,1.34033203125,-3.97705078125,11.480712890625
2021-09-22 20:21:43.007803,-0.0244140625,0.041015625,0.12158203125,1.0052490234375,-3.240966796875,10.9808349609375
2021-09-22 20:21:43.017663,-0.1123046875,0.19677734375,0.1884765625,0.59326171875,-2.3345947265625,10.48095703125
2021-09-22 20:21:43.027770,-0.13818359375,0.03955078125,0.78125,0.5328369140625,-1.4447021484375,9.9591064453125
2021-09-22 20:21:43.037624,-0.04443359375,0.05615234375,1.16943359375,0.6317138671875,-0.615234375,9.4427490234375
2021-09-22 20:21:43.047451,-0.12890625,-0.26123046875,1.37109375,0.867919921875,-0.1043701171875,8.9813232421875
2021-09-22 20:21:43.057594,-0.19873046875,-0.185546875,1.3203125,1.0272216796875,0.142822265625,8.602294921875
2021-09-22 20:21:43.067509,0.134765625,0.09130859375,1.08642578125,1.1480712890625,0.263671875,8.3221435546875
2021-09-22 20:21:43.077331,0.314453125,0.03466796875,0.6982421875,1.3897705078125,0.1263427734375,8.26171875
2021-09-22 20:21:43.087501,0.29345703125,-0.1337890625,1.0732421875,1.47216796875,-0.054931640625,8.4375
2021-09-22 20:21:43.097630,0.43896484375,0.095703125,1.27001953125,1.0162353515625,-0.3900146484375,8.756103515625
2021-09-22 20:21:43.107468,0.66455078125,0.25634765625,0.9033203125,0.439453125,-0.9063720703125,9.16259765625
2021-09-22 20:21:43.117395,0.521484375,0.15576171875,0.822265625,0.0164794921875,-1.878662109375,9.64599609375
2021-09-22 20:21:43.127293,0.330078125,-0.0126953125,1.05712890625,-0.3021240234375,-3.0816650390625,10.17333984375
2021-09-22 20:21:43.137277,0.13134765625,0.0625,0.93115234375,-0.966796875,-4.3231201171875,10.689697265625
2021-09-22 20:21:43.147129,-0.369140625,0.36474609375,1.15771484375,-1.7852783203125,-5.4547119140625,11.107177734375
2021-09-22 20:21:43.157338,-0.4521484375,-0.03076171875,1.99658203125,-1.966552734375,-6.141357421875,11.5081787109375
2021-09-22 20:21:43.167176,-0.5283203125,0.06591796875,0.73388671875,-2.0928955078125,-6.2017822265625,11.8157958984375
2021-09-22 20:21:43.177162,-0.25439453125,-0.10302734375,1.0244140625,-1.9775390625,-5.7073974609375,12.008056640625
2021-09-22 20:21:43.187004,0.0498046875,-0.064453125,0.28076171875,-1.7742919921875,-4.801025390625,12.1124267578125
2021-09-22 20:21:43.196905,0.08837890625,0.14794921875,0.52734375,-1.47216796875,-3.790283203125,12.1124267578125
2021-09-22 20:21:43.207219,-0.02490234375,-0.115234375,0.12109375,-0.8734130859375,-2.933349609375,11.986083984375
2021-09-22 20:21:43.217147,-0.25439453125,-0.08251953125,0.1103515625,-0.428466796875,-1.9830322265625,11.832275390625
2021-09-22 20:21:43.227218,0.11962890625,-0.23779296875,-0.29541015625,-0.06591796875,-0.867919921875,11.689453125
2021-09-22 20:21:43.237151,0.44189453125,0.24560546875,0.95458984375,-0.1318359375,0.06591796875,11.689453125
2021-09-22 20:21:43.247005,0.3388671875,0.25,1.71044921875,-0.1702880859375,0.3570556640625,11.920166015625
2021-09-22 20:21:43.256931,-0.13671875,0.24169921875,2.203125,-0.1922607421875,-0.0274658203125,12.4310302734375
2021-09-22 20:21:43.266986,-0.03662109375,0.138671875,1.8701171875,-0.0494384765625,-0.648193359375,13.1011962890625
2021-09-22 20:21:43.276849,0.23291015625,0.015625,1.19580078125,0.1373291015625,-1.3458251953125,13.7109375
2021-09-22 20:21:43.286750,0.2548828125,0.021484375,1.33056640625,0.296630859375,-2.1533203125,14.0789794921875
2021-09-22 20:21:43.296678,0.29833984375,-0.5107421875,1.35009765625,0.7965087890625,-3.0377197265625,14.17236328125
2021-09-22 20:21:43.306746,0.162109375,-0.22119140625,1.7314453125,1.142578125,-3.9385986328125,14.095458984375
2021-09-22 20:21:43.316602,-0.0576171875,-0.1953125,0.77587890625,1.47216796875,-4.6746826171875,13.831787109375
2021-09-22 20:21:43.326641,-0.37158203125,-0.3662109375,1.31689453125,1.73583984375,-5.086669921875,13.414306640625
2021-09-22 20:21:43.336690,-0.20068359375,-0.0166015625,1.328125,1.5545654296875,-5.0592041015625,12.89794921875
2021-09-22 20:21:43.346574,-0.1806640625,-0.11669921875,0.55810546875,1.461181640625,-4.5538330078125,12.2882080078125
2021-09-22 20:21:43.356445,-0.09375,0.18359375,0.224609375,1.142578125,-3.812255859375,11.656494140625
2021-09-22 20:21:43.366559,-0.0771484375,0.072265625,0.06298828125,0.8734130859375,-2.8948974609375,10.96435546875
2021-09-22 20:21:43.376824,-0.1591796875,0.30419921875,0.53173828125,0.5987548828125,-1.86767578125,10.2667236328125
2021-09-22 20:21:43.386439,-0.02783203125,0.05419921875,0.6533203125,0.8734130859375,-0.8953857421875,9.55810546875
2021-09-22 20:21:43.396372,-0.02880859375,-0.126953125,1.767578125,1.1810302734375,-0.2032470703125,8.9208984375
2021-09-22 20:21:43.406485,-0.00244140625,-0.20166015625,1.72021484375,1.38427734375,0.1812744140625,8.4100341796875
2021-09-22 20:21:43.416303,0.1455078125,-0.0712890625,1.1396484375,1.494140625,0.3680419921875,8.02001953125
2021-09-22 20:21:43.426240,0.341796875,0.150390625,1.0361328125,1.5875244140625,0.28564453125,7.8277587890625
2021-09-22 20:21:43.436525,0.40673828125,-0.119140625,1.0693359375,1.7962646484375,0.0274658203125,7.9046630859375
2021-09-22 20:21:43.446340,0.38818359375,0.02490234375,1.38916015625,1.47216796875,-0.3460693359375,8.19580078125
2021-09-22 20:21:43.456190,0.60009765625,0.22412109375,0.7275390625,0.85693359375,-0.85693359375,8.5968017578125
2021-09-22 20:21:43.466268,0.53173828125,0.19482421875,0.912109375,0.318603515625,-1.7303466796875,9.0802001953125
2021-09-22 20:21:43.476815,0.34375,0.04541015625,0.95556640625,-0.054931640625,-2.900390625,9.6240234375
2021-09-22 20:21:43.486056,0.140625,0.07080078125,0.822265625,-0.604248046875,-4.1473388671875,10.1678466796875
2021-09-22 20:21:43.496177,-0.4521484375,0.27978515625,0.95458984375,-1.3787841796875,-5.3118896484375,10.6292724609375
2021-09-22 20:21:43.506128,-0.47265625,0.0087890625,1.83984375,-1.5985107421875,-5.9600830078125,11.0577392578125
2021-09-22 20:21:43.516069,-0.45361328125,0.19677734375,0.82568359375,-1.8017578125,-5.9381103515625,11.3983154296875
2021-09-22 20:21:43.525998,-0.2734375,-0.10302734375,1.009765625,-1.680908203125,-5.4547119140625,11.57958984375
2021-09-22 20:21:43.535897,0.02880859375,-0.09423828125,0.44921875,-1.42822265625,-4.5648193359375,11.6729736328125
2021-09-22 20:21:43.545765,0.03466796875,0.1455078125,0.30908203125,-1.142578125,-3.5650634765625,11.656494140625
2021-09-22 20:21:43.555917,0.0048828125,-0.107421875,0.23876953125,-0.5218505859375,-2.6806640625,11.4971923828125
2021-09-22 20:21:43.565966,-0.27392578125,-0.169921875,0.0068359375,-0.06591796875,-1.7083740234375,11.2939453125
2021-09-22 20:21:43.576037,0.0810546875,-0.0771484375,0.935546875,0.1593017578125,-0.5767822265625,11.0797119140625
2021-09-22 20:21:43.585789,0.38330078125,0.41552734375,1.064453125,-0.0384521484375,0.230712890625,11.0302734375
