time,acc_x,acc_y,acc_z,roll,pitch,yaw
2021-09-24 22:47:49.638095,0.03271484375,0.56396484375,0.853515625,33.4039306640625,-1.812744140625,0.81298828125
2021-09-24 22:47:49.639017,0.033203125,0.564453125,0.85107421875,33.4039306640625,-1.812744140625,0.81298828125
2021-09-24 22:47:49.639778,0.033203125,0.56396484375,0.85595703125,33.4039306640625,-1.812744140625,0.81298828125
2021-09-24 22:47:49.640433,0.033203125,0.5625,0.85693359375,33.4039306640625,-1.812744140625,0.81298828125
2021-09-24 22:47:49.641039,0.033203125,0.5615234375,0.85498046875,33.4039306640625,-1.8182373046875,0.81298828125
2021-09-24 22:47:49.641729,0.033203125,0.5625,0.853515625,33.4039306640625,-1.8182373046875,0.81298828125
2021-09-24 22:47:49.642406,0.0322265625,0.560546875,0.853515625,33.4039306640625,-1.8182373046875,0.81298828125
2021-09-24 22:47:49.643157,0.03173828125,0.5634765625,0.85546875,33.3984375,-1.8182373046875,0.81298828125
2021-09-24 22:47:49.643796,0.0322265625,0.56591796875,0.8505859375,33.3984375,-1.812744140625,0.81298828125
2021-09-24 22:47:49.644509,0.0341796875,0.564453125,0.84814453125,33.3984375,-1.812744140625,0.81298828125
2021-09-24 22:47:49.645218,0.03515625,0.56640625,0.85205078125,33.4039306640625,-1.8072509765625,0.81298828125
2021-09-24 22:47:49.645915,0.03369140625,0.56396484375,0.85302734375,33.4039306640625,-1.812744140625,0.81298828125
2021-09-24 22:47:49.646518,0.03271484375,0.5625,0.8515625,33.4039306640625,-1.812744140625,0.81298828125
2021-09-24 22:47:49.647184,0.03173828125,0.5625,0.849609375,33.4039306640625,-1.812744140625,0.81298828125
2021-09-24 22:47:49.647875,0.03369140625,0.56103515625,0.857421875,33.4039306640625,-1.8182373046875,0.81298828125
2021-09-24 22:47:49.648526,0.03076171875,0.5615234375,0.8515625,33.4039306640625,-1.8182373046875,0.81298828125
2021-09-24 22:47:49.649121,0.03369140625,0.5634765625,0.8544921875,33.4039306640625,-1.8182373046875,0.81298828125
2021-09-24 22:47:49.649755,0.03076171875,0.5625,0.8564453125,33.4039306640625,-1.8182373046875,0.81298828125
2021-09-24 22:47:49.650296,0.0302734375,0.5634765625,0.85009765625,33.4039306640625,-1.812744140625,0.81298828125
2021-09-24 22:47:49.650750,0.03173828125,0.56298828125,0.853515625,33.4039306640625,-1.812744140625,0.81298828125
2021-09-24 22:47:49.651356,0.03173828125,0.5625,0.8525390625,33.4039306640625,-1.8072509765625,0.81298828125
2021-09-24 22:47:49.651858,0.0341796875,0.56396484375,0.85205078125,33.4039306640625,-1.8017578125,0.81298828125
2021-09-24 22:47:49.652388,0.03515625,0.56494140625,0.85498046875,33.4039306640625,-1.8017578125,0.81298828125
2021-09-24 22:47:49.652922,0.03076171875,0.560546875,0.85693359375,33.4039306640625,-1.8072509765625,0.81298828125
2021-09-24 22:47:49.653494,0.03271484375,0.5615234375,0.85595703125,33.409423828125,-1.8072509765625,0.81298828125
2021-09-24 22:47:49.654056,0.033203125,0.560546875,0.8564453125,33.4039306640625,-1.812744140625,0.81298828125
2021-09-24 22:47:49.654555,0.0322265625,0.56103515625,0.8544921875,33.4039306640625,-1.812744140625,0.81298828125
2021-09-24 22:47:49.655177,0.0302734375,0.56201171875,0.8515625,33.4039306640625,-1.812744140625,0.81298828125
2021-09-24 22:47:49.655831,0.0302734375,0.56494140625,0.85107421875,33.4039306640625,-1.812744140625,0.81298828125
2021-09-24 22:47:49.656445,0.03369140625,0.56591796875,0.8525390625,33.4039306640625,-1.812744140625,0.81298828125
2021-09-24 22:47:49.657005,0.0322265625,0.5634765625,0.853515625,33.4039306640625,-1.812744140625,0.81298828125
2021-09-24 22:47:49.657591,0.03466796875,0.56396484375,0.85205078125,33.4039306640625,-1.8072509765625,0.81298828125
2021-09-24 22:47:49.658140,0.0361328125,0.56201171875,0.853515625,33.4039306640625,-1.8072509765625,0.81298828125
2021-09-24 22:47:49.658684,0.0341796875,0.5625,0.85400390625,33.4039306640625,-1.8072509765625,0.81298828125
2021-09-24 22:47:49.659227,0.03515625,0.56201171875,0.8544921875,33.4039306640625,-1.8072509765625,0.81298828125
2021-09-24 22:47:49.662618,0.03369140625,0.56298828125,0.85009765625,33.4039306640625,-1.812744140625,0.81298828125
2021-09-24 22:47:49.663106,0.033203125,0.5615234375,0.8525390625,33.4039306640625,-1.812744140625,0.81298828125
2021-09-24 22:47:49.663519,0.0302734375,0.56298828125,0.85205078125,33.4039306640625,-1.8182373046875,0.81298828125
2021-09-24 22:47:49.663825,0.029296875,0.56396484375,0.85009765625,33.4039306640625,-1.8182373046875,0.81298828125
2021-09-24 22:47:49.664164,0.02880859375,0.5625,0.8525390625,33.4039306640625,-1.812744140625,0.81298828125
2021-09-24 22:47:49.664492,0.02978515625,0.5634765625,0.853515625,33.4039306640625,-1.812744140625,0.81298828125
2021-09-24 22:47:49.664862,0.03125,0.56298828125,0.85205078125,33.409423828125,-1.8072509765625,0.81298828125
2021-09-24 22:47:49.665200,0.03271484375,0.56298828125,0.8515625,33.409423828125,-1.8072509765625,0.81298828125
2021-09-24 22:47:49.665617,0.0341796875,0.56298828125,0.85498046875,33.409423828125,-1.8017578125,0.81298828125
2021-09-24 22:47:49.665978,0.03515625,0.5634765625,0.85595703125,33.4039306640625,-1.8017578125,0.81298828125
2021-09-24 22:47:49.666409,0.03515625,0.5625,0.85400390625,33.4039306640625,-1.8072509765625,0.81298828125
2021-09-24 22:47:49.666787,0.03466796875,0.56396484375,0.85302734375,33.4039306640625,-1.8072509765625,0.81298828125
2021-09-24 22:47:49.667099,0.03125,0.564453125,0.85498046875,33.409423828125,-1.812744140625,0.81298828125
2021-09-24 22:47:49.667442,0.0302734375,0.56396484375,0.85205078125,33.409423828125,-1.812744140625,0.81298828125
2021-09-24 22:47:49.667806,0.03173828125,0.564453125,0.85107421875,33.409423828125,-1.8182373046875,0.81298828125
2021-09-24 22:47:49.668089,0.03125,0.56298828125,0.85546875,33.409423828125,-1.812744140625,0.81298828125
2021-09-24 22:47:49.668370,0.0302734375,0.56298828125,0.85498046875,33.409423828125,-1.812744140625,0.81298828125
2021-09-24 22:47:49.668662,0.0322265625,0.56396484375,0.85546875,33.409423828125,-1.8072509765625,0.81298828125
2021-09-24 22:47:49.668936,0.0322265625,0.56298828125,0.853515625,33.409423828125,-1.8072509765625,0.81298828125
2021-09-24 22:47:49.669210,0.03466796875,0.56298828125,0.85400390625,33.409423828125,-1.8017578125,0.81298828125
2021-09-24 22:47:49.669514,0.03564453125,0.560546875,0.85498046875,33.4039306640625,-1.8072509765625,0.81298828125
2021-09-24 22:47:49.669772,0.03515625,0.5615234375,0.8505859375,33.4039306640625,-1.812744140625,0.81298828125
2021-09-24 22:47:49.669994,0.033203125,0.56298828125,0.85205078125,33.409423828125,-1.812744140625,0.81298828125
2021-09-24 22:47:49.670275,0.03271484375,0.5615234375,0.85302734375,33.4039306640625,-1.8182373046875,0.81298828125
2021-09-24 22:47:49.670571,0.0302734375,0.56298828125,0.85107421875,33.409423828125,-1.8182373046875,0.81298828125
2021-09-24 22:47:49.670844,0.0302734375,0.56396484375,0.8525390625,33.409423828125,-1.812744140625,0.81298828125
2021-09-24 22:47:49.671107,0.03271484375,0.56494140625,0.853515625,33.409423828125,-1.812744140625,0.81298828125
2021-09-24 22:47:49.671398,0.0322265625,0.5634765625,0.853515625,33.409423828125,-1.812744140625,0.81298828125
2021-09-24 22:47:49.671668,0.0341796875,0.56396484375,0.8544921875,33.409423828125,-1.8072509765625,0.81298828125
2021-09-24 22:47:49.671930,0.033203125,0.5634765625,0.8505859375,33.409423828125,-1.8072509765625,0.81298828125
2021-09-24 22:47:49.672199,0.03515625,0.5634765625,0.85205078125,33.409423828125,-1.812744140625,0.81298828125
2021-09-24 22:47:49.672465,0.03271484375,0.5634765625,0.85107421875,33.409423828125,-1.812744140625,0.81298828125
2021-09-24 22:47:49.672719,0.03173828125,0.56298828125,0.85107421875,33.4149169921875,-1.8182373046875,0.81298828125
2021-09-24 22:47:49.672928,0.0302734375,0.5634765625,0.85400390625,33.4149169921875,-1.8182373046875,0.81298828125
2021-09-24 22:47:49.673135,0.0302734375,0.56298828125,0.85302734375,33.4149169921875,-1.8182373046875,0.81298828125
2021-09-24 22:47:49.673355,0.03076171875,0.56201171875,0.8515625,33.4149169921875,-1.8182373046875,0.81298828125
2021-09-24 22:47:49.673564,0.03369140625,0.5634765625,0.853515625,33.4149169921875,-1.812744140625,0.81298828125
2021-09-24 22:47:49.673803,0.03564453125,0.56591796875,0.85205078125,33.4149169921875,-1.812744140625,0.81298828125
2021-09-24 22:47:49.674031,0.033203125,0.56494140625,0.8525390625,33.4149169921875,-1.812744140625,0.81298828125
2021-09-24 22:47:49.674271,0.033203125,0.56201171875,0.8525390625,33.4149169921875,-1.812744140625,0.81298828125
2021-09-24 22:47:49.674512,0.03125,0.5615234375,0.8525390625,33.4149169921875,-1.812744140625,0.81298828125
2021-09-24 22:47:49.674754,0.033203125,0.5615234375,0.853515625,33.4149169921875,-1.812744140625,0.81298828125
2021-09-24 22:47:49.674989,0.033203125,0.5625,0.85205078125,33.4149169921875,-1.8182373046875,0.81298828125
2021-09-24 22:47:49.675231,0.03173828125,0.56298828125,0.84765625,33.4149169921875,-1.8182373046875,0.81298828125
2021-09-24 22:47:49.675460,0.0341796875,0.5634765625,0.85546875,33.4149169921875,-1.8182373046875,0.81298828125
2021-09-24 22:47:49.675689,0.03271484375,0.5625,0.8515625,33.4149169921875,-1.8182373046875,0.81298828125
2021-09-24 22:47:49.675916,0.03271484375,0.5625,0.8525390625,33.4149169921875,-1.8182373046875,0.81298828125
2021-09-24 22:47:49.676132,0.033203125,0.56396484375,0.85595703125,33.4149169921875,-1.8182373046875,0.81298828125
2021-09-24 22:47:49.676337,0.03173828125,0.56396484375,0.8515625,33.4149169921875,-1.812744140625,0.81298828125
2021-09-24 22:47:49.676563,0.03369140625,0.56298828125,0.85205078125,33.4149169921875,-1.812744140625,0.81298828125
2021-09-24 22:47:49.676783,0.03369140625,0.56201171875,0.85302734375,33.4149169921875,-1.812744140625,0.81298828125
2021-09-24 22:47:49.677009,0.0341796875,0.56298828125,0.853515625,33.4149169921875,-1.8182373046875,0.81298828125
2021-09-24 22:47:49.677255,0.033203125,0.56494140625,0.853515625,33.4149169921875,-1.8182373046875,0.81298828125
2021-09-24 22:47:49.677465,0.0302734375,0.56201171875,0.85205078125,33.4149169921875,-1.82373046875,0.81298828125
2021-09-24 22:47:49.677664,0.0322265625,0.5625,0.85400390625,33.4149169921875,-1.8182373046875,0.81298828125
2021-09-24 22:47:49.677850,0.0322265625,0.5654296875,0.85302734375,33.42041015625,-1.8182373046875,0.81298828125
2021-09-24 22:47:49.678029,0.0322265625,0.56396484375,0.85546875,33.4149169921875,-1.8182373046875,0.81298828125
2021-09-24 22:47:49.678221,0.03466796875,0.5615234375,0.85400390625,33.4149169921875,-1.8182373046875,0.81298828125
2021-09-24 22:47:49.678402,0.03271484375,0.5625,0.8525390625,33.4149169921875,-1.8182373046875,0.81298828125
2021-09-24 22:47:49.678584,0.03271484375,0.5625,0.85107421875,33.4149169921875,-1.8182373046875,0.81298828125
2021-09-24 22:47:49.678779,0.0341796875,0.56396484375,0.85546875,33.4149169921875,-1.8182373046875,0.81298828125
2021-09-24 22:47:49.678969,0.03369140625,0.5625,0.85302734375,33.4149169921875,-1.82373046875,0.81298828125
2021-09-24 22:47:49.679164,0.03369140625,0.5634765625,0.853515625,33.4149169921875,-1.82373046875,0.81298828125
2021-09-24 22:47:49.679360,0.03271484375,0.56494140625,0.85302734375,33.42041015625,-1.82373046875,0.81298828125
2021-09-24 22:47:49.679555,0.0302734375,0.56201171875,0.85107421875,33.42041015625,-1.82373046875,0.81298828125
2021-09-24 22:47:49.679750,0.033203125,0.5625,0.8564453125,33.4149169921875,-1.82373046875,0.81298828125
2021-09-24 22:47:49.679943,0.03125,0.56103515625,0.8525390625,33.4149169921875,-1.82373046875,0.81298828125
2021-09-24 22:47:49.680136,0.03173828125,0.56298828125,0.8525390625,33.4149169921875,-1.82373046875,0.81298828125
2021-09-24 22:47:49.680330,0.03076171875,0.564453125,0.85302734375,33.4149169921875,-1.8182373046875,0.81298828125
2021-09-24 22:47:49.680528,0.03173828125,0.5625,0.8515625,33.4149169921875,-1.8182373046875,0.81298828125
2021-09-24 22:47:49.680720,0.03466796875,0.5625,0.857421875,33.4149169921875,-1.8182373046875,0.81298828125
2021-09-24 22:47:49.680917,0.0341796875,0.56005859375,0.853515625,33.4149169921875,-1.8182373046875,0.81298828125
2021-09-24 22:47:49.681114,0.03173828125,0.56201171875,0.85009765625,33.4149169921875,-1.82373046875,0.81298828125
2021-09-24 22:47:49.681328,0.033203125,0.56103515625,0.853515625,33.409423828125,-1.8182373046875,0.81298828125
2021-09-24 22:47:49.681537,0.03271484375,0.56396484375,0.8486328125,33.4149169921875,-1.8182373046875,0.81298828125
2021-09-24 22:47:49.681736,0.03173828125,0.56591796875,0.85009765625,33.4149169921875,-1.8182373046875,0.81298828125
2021-09-24 22:47:49.681900,0.03515625,0.56494140625,0.8525390625,33.4149169921875,-1.8182373046875,0.81298828125
2021-09-24 22:47:49.682082,0.033203125,0.56396484375,0.85107421875,33.4149169921875,-1.8182373046875,0.81298828125
2021-09-24 22:47:49.682262,0.033203125,0.56298828125,0.85400390625,33.42041015625,-1.8182373046875,0.81298828125
2021-09-24 22:47:49.682467,0.03125,0.56005859375,0.8544921875,33.42041015625,-1.82373046875,0.81298828125
2021-09-24 22:47:49.682650,0.03173828125,0.56103515625,0.85107421875,33.42041015625,-1.82373046875,0.81298828125
2021-09-24 22:47:49.682824,0.03125,0.5625,0.8564453125,33.4149169921875,-1.82373046875,0.81298828125
2021-09-24 22:47:49.682966,0.03173828125,0.564453125,0.85595703125,33.409423828125,-1.8182373046875,0.81298828125
2021-09-24 22:47:49.683117,0.03369140625,0.56640625,0.85205078125,33.409423828125,-1.8182373046875,0.81298828125
2021-09-24 22:47:49.683269,0.03466796875,0.56689453125,0.8525390625,33.4149169921875,-1.8182373046875,0.81298828125
2021-09-24 22:47:49.683423,0.0341796875,0.56494140625,0.85205078125,33.4149169921875,-1.8182373046875,0.81298828125
2021-09-24 22:47:49.683583,0.03369140625,0.56201171875,0.85498046875,33.42041015625,-1.8182373046875,0.81298828125
2021-09-24 22:47:49.683745,0.03271484375,0.5615234375,0.85400390625,33.42041015625,-1.82373046875,0.81298828125
2021-09-24 22:47:49.683922,0.03173828125,0.56201171875,0.8525390625,33.42041015625,-1.82373046875,0.81298828125
2021-09-24 22:47:49.684068,0.0341796875,0.564453125,0.85595703125,33.42041015625,-1.82373046875,0.81298828125
2021-09-24 22:47:49.684213,0.03173828125,0.5634765625,0.85400390625,33.42041015625,-1.82373046875,0.81298828125
2021-09-24 22:47:49.684356,0.03173828125,0.56494140625,0.85205078125,33.42041015625,-1.8182373046875,0.81298828125
2021-09-24 22:47:49.684496,0.033203125,0.5654296875,0.8544921875,33.42041015625,-1.8182373046875,0.81298828125
2021-09-24 22:47:49.684638,0.0322265625,0.56396484375,0.8486328125,33.42041015625,-1.8182373046875,0.81298828125
2021-09-24 22:47:49.684782,0.0322265625,0.56201171875,0.85107421875,33.42041015625,-1.8182373046875,0.81298828125
2021-09-24 22:47:49.684946,0.0322265625,0.56201171875,0.8564453125,33.42041015625,-1.8182373046875,0.81298828125
2021-09-24 22:47:49.685112,0.033203125,0.5634765625,0.85595703125,33.42041015625,-1.8182373046875,0.81298828125
2021-09-24 22:47:49.685258,0.03369140625,0.56298828125,0.8544921875,33.42041015625,-1.8182373046875,0.81298828125
2021-09-24 22:47:49.685406,0.033203125,0.56298828125,0.85107421875,33.42041015625,-1.82373046875,0.81298828125
2021-09-24 22:47:49.685537,0.0341796875,0.56298828125,0.85595703125,33.42041015625,-1.8182373046875,0.81298828125
2021-09-24 22:47:49.685707,0.03271484375,0.56298828125,0.85546875,33.4149169921875,-1.8182373046875,0.81298828125
2021-09-24 22:47:49.685883,0.0322265625,0.5654296875,0.84716796875,33.42041015625,-1.8182373046875,0.81298828125
2021-09-24 22:47:49.686057,0.03662109375,0.5634765625,0.85986328125,33.4149169921875,-1.8182373046875,0.81298828125
2021-09-24 22:47:49.686237,0.03173828125,0.5625,0.84912109375,33.4149169921875,-1.82373046875,0.81298828125
2021-09-24 22:47:49.686415,0.0322265625,0.56201171875,0.8515625,33.4149169921875,-1.82373046875,0.81298828125
2021-09-24 22:47:49.686596,0.03076171875,0.56201171875,0.8564453125,33.4149169921875,-1.82373046875,0.81298828125
2021-09-24 22:47:49.686772,0.029296875,0.560546875,0.85400390625,33.4149169921875,-1.82373046875,0.81298828125
2021-09-24 22:47:49.686950,0.03271484375,0.56201171875,0.8505859375,33.4149169921875,-1.8182373046875,0.81298828125
2021-09-24 22:47:49.687124,0.03271484375,0.56298828125,0.8544921875,33.409423828125,-1.812744140625,0.81298828125
2021-09-24 22:47:49.687299,0.03515625,0.56494140625,0.85400390625,33.409423828125,-1.812744140625,0.81298828125
2021-09-24 22:47:49.687486,0.03369140625,0.56494140625,0.8525390625,33.409423828125,-1.812744140625,0.81298828125
2021-09-24 22:47:49.687671,0.03271484375,0.56298828125,0.85400390625,33.409423828125,-1.812744140625,0.81298828125
2021-09-24 22:47:49.687841,0.02978515625,0.560546875,0.85009765625,33.409423828125,-1.8182373046875,0.81298828125
2021-09-24 22:47:49.688016,0.0302734375,0.5615234375,0.85546875,33.409423828125,-1.8182373046875,0.81298828125
2021-09-24 22:47:49.688185,0.029296875,0.5625,0.85498046875,33.409423828125,-1.8182373046875,0.81298828125
2021-09-24 22:47:49.688351,0.029296875,0.56298828125,0.849609375,33.409423828125,-1.8182373046875,0.81298828125
2021-09-24 22:47:49.688519,0.033203125,0.56396484375,0.85546875,33.409423828125,-1.812744140625,0.81298828125
2021-09-24 22:47:49.688689,0.03564453125,0.5634765625,0.85107421875,33.409423828125,-1.812744140625,0.81298828125
2021-09-24 22:47:49.688849,0.03466796875,0.56298828125,0.85546875,33.409423828125,-1.8072509765625,0.81298828125
2021-09-24 22:47:49.689008,0.03369140625,0.56201171875,0.8564453125,33.409423828125,-1.812744140625,0.81298828125
2021-09-24 22:47:49.689161,0.03369140625,0.5625,0.85498046875,33.409423828125,-1.812744140625,0.81298828125
2021-09-24 22:47:49.689335,0.0341796875,0.56298828125,0.85693359375,33.409423828125,-1.8182373046875,0.81298828125
2021-09-24 22:47:49.689506,0.03173828125,0.56298828125,0.8525390625,33.4039306640625,-1.82373046875,0.81298828125
2021-09-24 22:47:49.689676,0.03173828125,0.56591796875,0.85205078125,33.4039306640625,-1.82373046875,0.81298828125
2021-09-24 22:47:49.689840,0.02880859375,0.56494140625,0.85498046875,33.4039306640625,-1.8182373046875,0.81298828125
2021-09-24 22:47:49.690007,0.0302734375,0.56298828125,0.8544921875,33.4039306640625,-1.8182373046875,0.81298828125
2021-09-24 22:47:49.690172,0.0322265625,0.56298828125,0.853515625,33.4039306640625,-1.8182373046875,0.81298828125
2021-09-24 22:47:49.690294,0.03466796875,0.560546875,0.85595703125,33.4039306640625,-1.812744140625,0.81298828125
2021-09-24 22:47:49.690445,0.03125,0.560546875,0.85205078125,33.4039306640625,-1.812744140625,0.81298828125
2021-09-24 22:47:49.690614,0.03125,0.56201171875,0.85595703125,33.4039306640625,-1.812744140625,0.81298828125
2021-09-24 22:47:49.690778,0.0322265625,0.5634765625,0.85302734375,33.4039306640625,-1.812744140625,0.81298828125
2021-09-24 22:47:49.690954,0.033203125,0.5673828125,0.85107421875,33.4039306640625,-1.812744140625,0.81298828125
2021-09-24 22:47:49.691115,0.03271484375,0.56591796875,0.85302734375,33.4039306640625,-1.812744140625,0.81298828125
2021-09-24 22:47:49.691288,0.03173828125,0.56494140625,0.85205078125,33.4039306640625,-1.812744140625,0.81298828125
2021-09-24 22:47:49.691459,0.0322265625,0.5615234375,0.8544921875,33.4039306640625,-1.812744140625,0.81298828125
2021-09-24 22:47:49.691626,0.0302734375,0.55859375,0.857421875,33.4039306640625,-1.812744140625,0.81298828125
2021-09-24 22:47:49.691784,0.0302734375,0.56103515625,0.85107421875,33.4039306640625,-1.812744140625,0.81298828125
2021-09-24 22:47:49.691940,0.03125,0.56103515625,0.85400390625,33.3984375,-1.8072509765625,0.81298828125
2021-09-24 22:47:49.692098,0.0322265625,0.56494140625,0.85205078125,33.3984375,-1.8072509765625,0.81298828125
2021-09-24 22:47:49.692267,0.03369140625,0.56640625,0.853515625,33.3984375,-1.8017578125,0.81298828125
2021-09-24 22:47:49.692429,0.03515625,0.5654296875,0.857421875,33.3984375,-1.8017578125,0.81298828125
2021-09-24 22:47:49.692589,0.0322265625,0.5615234375,0.8525390625,33.3984375,-1.8017578125,0.81298828125
2021-09-24 22:47:49.692748,0.0322265625,0.56005859375,0.8544921875,33.3984375,-1.8072509765625,0.81298828125
2021-09-24 22:47:49.692917,0.033203125,0.56201171875,0.85546875,33.3984375,-1.8072509765625,0.81298828125
2021-09-24 22:47:49.693083,0.03076171875,0.56201171875,0.85400390625,33.3984375,-1.8072509765625,0.81298828125
2021-09-24 22:47:49.693246,0.03271484375,0.56298828125,0.85595703125,33.3984375,-1.8072509765625,0.81298828125
2021-09-24 22:47:49.693401,0.03369140625,0.56298828125,0.8515625,33.3929443359375,-1.8072509765625,0.81298828125
2021-09-24 22:47:49.693556,0.03271484375,0.564453125,0.85400390625,33.3984375,-1.8072509765625,0.81298828125
2021-09-24 22:47:49.693693,0.03271484375,0.56396484375,0.85595703125,33.3929443359375,-1.8072509765625,0.81298828125
2021-09-24 22:47:49.693842,0.03271484375,0.5615234375,0.85107421875,33.3984375,-1.8072509765625,0.81298828125
2021-09-24 22:47:49.693995,0.033203125,0.560546875,0.85205078125,33.3984375,-1.8072509765625,0.81298828125
2021-09-24 22:47:49.694150,0.0341796875,0.56201171875,0.8525390625,33.3984375,-1.8072509765625,0.81298828125
2021-09-24 22:47:49.694299,0.033203125,0.5625,0.8525390625,33.3984375,-1.8072509765625,0.81298828125
2021-09-24 22:47:49.694453,0.03466796875,0.5625,0.8544921875,33.3929443359375,-1.8072509765625,0.81298828125
2021-09-24 22:47:49.694600,0.0322265625,0.56298828125,0.8515625,33.3929443359375,-1.8072509765625,0.81298828125
2021-09-24 22:47:49.694940,0.03076171875,0.564453125,0.8525390625,33.3929443359375,-1.8072509765625,0.81298828125
2021-09-24 22:47:49.695094,0.03271484375,0.56396484375,0.8525390625,33.3984375,-1.8072509765625,0.81298828125
2021-09-24 22:47:49.695210,0.03125,0.56298828125,0.8505859375,33.3984375,-1.8072509765625,0.81298828125
2021-09-24 22:47:49.695332,0.03369140625,0.564453125,0.853515625,33.3984375,-1.8072509765625,0.81298828125
2021-09-24 22:47:49.695465,0.033203125,0.5634765625,0.85302734375,33.3984375,-1.8072509765625,0.81298828125
2021-09-24 22:47:49.695587,0.03515625,0.56298828125,0.85205078125,33.3984375,-1.8017578125,0.81298828125
2021-09-24 22:47:49.695735,0.037109375,0.5625,0.8544921875,33.3984375,-1.8072509765625,0.81298828125
2021-09-24 22:47:49.695881,0.03564453125,0.56298828125,0.85302734375,33.3984375,-1.8072509765625,0.81298828125
2021-09-24 22:47:49.696028,0.03369140625,0.56201171875,0.853515625,33.3984375,-1.8072509765625,0.81298828125
2021-09-24 22:47:49.696171,0.03271484375,0.56298828125,0.85595703125,33.3984375,-1.8072509765625,0.81298828125
2021-09-24 22:47:49.696338,0.03173828125,0.5615234375,0.8505859375,33.3984375,-1.812744140625,0.81298828125
2021-09-24 22:47:49.696506,0.0322265625,0.5634765625,0.85400390625,33.3984375,-1.8072509765625,0.81298828125
2021-09-24 22:47:49.696671,0.03271484375,0.56591796875,0.85205078125,33.3984375,-1.8072509765625,0.81298828125
2021-09-24 22:47:49.696827,0.03369140625,0.56494140625,0.8525390625,33.3984375,-1.8072509765625,0.81298828125
2021-09-24 22:47:49.696993,0.0322265625,0.56396484375,0.857421875,33.3984375,-1.8072509765625,0.81298828125
2021-09-24 22:47:49.697162,0.03125,0.5625,0.85107421875,33.3984375,-1.8072509765625,0.81298828125
2021-09-24 22:47:49.697343,0.03369140625,0.560546875,0.8564453125,33.3984375,-1.8072509765625,0.81298828125
2021-09-24 22:47:49.697515,0.03271484375,0.5625,0.85546875,33.3984375,-1.8072509765625,0.81298828125
2021-09-24 22:47:49.697682,0.03125,0.56298828125,0.85107421875,33.3984375,-1.8072509765625,0.81298828125
2021-09-24 22:47:49.697852,0.03271484375,0.564453125,0.85498046875,33.3984375,-1.8072509765625,0.81298828125
2021-09-24 22:47:49.698026,0.0341796875,0.564453125,0.85302734375,33.3984375,-1.8072509765625,0.81298828125
2021-09-24 22:47:49.698191,0.033203125,0.56396484375,0.85595703125,33.3984375,-1.8072509765625,0.81298828125
2021-09-24 22:47:49.698362,0.03125,0.5634765625,0.85498046875,33.3984375,-1.8072509765625,0.81298828125
2021-09-24 22:47:49.698519,0.03173828125,0.5615234375,0.8544921875,33.3984375,-1.812744140625,0.81298828125
2021-09-24 22:47:49.698683,0.03076171875,0.5634765625,0.85693359375,33.3929443359375,-1.8072509765625,0.81298828125
2021-09-24 22:47:49.698837,0.03173828125,0.5634765625,0.85888671875,33.3929443359375,-1.8072509765625,0.81298828125
2021-09-24 22:47:49.698990,0.03369140625,0.56298828125,0.85302734375,33.3929443359375,-1.8072509765625,0.81298828125
2021-09-24 22:47:49.699137,0.03369140625,0.56396484375,0.85498046875,33.3929443359375,-1.8072509765625,0.81298828125
2021-09-24 22:47:49.699277,0.033203125,0.564453125,0.859375,33.3929443359375,-1.8072509765625,0.81298828125
2021-09-24 22:47:49.699432,0.033203125,0.564453125,0.857421875,33.3929443359375,-1.8072509765625,0.81298828125
2021-09-24 22:47:49.699586,0.03515625,0.56591796875,0.85693359375,33.3929443359375,-1.8072509765625,0.81298828125
2021-09-24 22:47:49.699731,0.03515625,0.560546875,0.8603515625,33.3929443359375,-1.812744140625,0.81298828125
2021-09-24 22:47:49.699872,0.0341796875,0.56103515625,0.85205078125,33.3929443359375,-1.8182373046875,0.81298828125
2021-09-24 22:47:49.700021,0.03369140625,0.56494140625,0.85302734375,33.3929443359375,-1.8182373046875,0.81298828125
2021-09-24 22:47:49.700166,0.0322265625,0.5634765625,0.85400390625,33.3929443359375,-1.8182373046875,0.81298828125
2021-09-24 22:47:49.700301,0.03173828125,0.5634765625,0.85205078125,33.3929443359375,-1.8182373046875,0.81298828125
2021-09-24 22:47:49.700445,0.03271484375,0.564453125,0.85107421875,33.3929443359375,-1.812744140625,0.81298828125
2021-09-24 22:47:49.700592,0.03125,0.5634765625,0.8544921875,33.3929443359375,-1.812744140625,0.81298828125
2021-09-24 22:47:49.700739,0.033203125,0.56494140625,0.85302734375,33.3929443359375,-1.8072509765625,0.81298828125
2021-09-24 22:47:49.700893,0.03515625,0.56298828125,0.8544921875,33.3929443359375,-1.812744140625,0.81298828125
2021-09-24 22:47:49.701038,0.0322265625,0.5634765625,0.85400390625,33.3929443359375,-1.812744140625,0.81298828125
2021-09-24 22:47:49.701180,0.03076171875,0.56298828125,0.8583984375,33.3929443359375,-1.8072509765625,0.81298828125
2021-09-24 22:47:49.701352,0.0322265625,0.56298828125,0.85302734375,33.3929443359375,-1.812744140625,0.81298828125
2021-09-24 22:47:49.701510,0.03173828125,0.56494140625,0.85400390625,33.3929443359375,-1.812744140625,0.81298828125
2021-09-24 22:47:49.701660,0.03125,0.56396484375,0.853515625,33.3929443359375,-1.8072509765625,0.81298828125
2021-09-24 22:47:49.701804,0.03173828125,0.56201171875,0.853515625,33.3929443359375,-1.812744140625,0.81298828125
2021-09-24 22:47:49.701954,0.0322265625,0.5615234375,0.85302734375,33.3929443359375,-1.8072509765625,0.81298828125
2021-09-24 22:47:49.702085,0.03271484375,0.5615234375,0.853515625,33.3929443359375,-1.8072509765625,0.81298828125
2021-09-24 22:47:49.702232,0.0341796875,0.5625,0.85107421875,33.3929443359375,-1.8072509765625,0.81298828125
2021-09-24 22:47:49.702379,0.03173828125,0.5625,0.85400390625,33.3929443359375,-1.8072509765625,0.81298828125
2021-09-24 22:47:49.702525,0.033203125,0.56298828125,0.84814453125,33.3929443359375,-1.8072509765625,0.81298828125
2021-09-24 22:47:49.702665,0.03173828125,0.5634765625,0.8544921875,33.3929443359375,-1.8072509765625,0.81298828125
2021-09-24 22:47:49.702811,0.033203125,0.56298828125,0.85400390625,33.3929443359375,-1.8072509765625,0.81298828125
2021-09-24 22:47:49.702960,0.0322265625,0.56298828125,0.85302734375,33.3929443359375,-1.8072509765625,0.81298828125
2021-09-24 22:47:49.703117,0.0322265625,0.56298828125,0.85498046875,33.3929443359375,-1.8072509765625,0.81298828125
2021-09-24 22:47:49.703268,0.0322265625,0.5615234375,0.853515625,33.3929443359375,-1.8072509765625,0.81298828125
2021-09-24 22:47:49.703418,0.029296875,0.5625,0.85107421875,33.3929443359375,-1.8072509765625,0.81298828125
2021-09-24 22:47:49.703562,0.0341796875,0.56201171875,0.85302734375,33.3929443359375,-1.8072509765625,0.81298828125
2021-09-24 22:47:49.703715,0.03271484375,0.56201171875,0.85009765625,33.3929443359375,-1.8072509765625,0.81298828125
2021-09-24 22:47:49.703865,0.03515625,0.564453125,0.85595703125,33.3929443359375,-1.8072509765625,0.81298828125
2021-09-24 22:47:49.704017,0.03369140625,0.56298828125,0.85595703125,33.3929443359375,-1.8072509765625,0.81298828125
2021-09-24 22:47:49.704153,0.03173828125,0.5634765625,0.85205078125,33.3929443359375,-1.8072509765625,0.81298828125
2021-09-24 22:47:49.704296,0.03369140625,0.56298828125,0.85546875,33.3929443359375,-1.8072509765625,0.81298828125
2021-09-24 22:47:49.704450,0.03125,0.5625,0.85205078125,33.3929443359375,-1.8072509765625,0.81298828125
2021-09-24 22:47:49.704603,0.03173828125,0.56201171875,0.85302734375,33.3929443359375,-1.8072509765625,0.81298828125
2021-09-24 22:47:49.704726,0.03271484375,0.56201171875,0.8544921875,33.3929443359375,-1.8072509765625,0.81298828125
2021-09-24 22:47:49.704939,0.0322265625,0.56201171875,0.85009765625,33.3929443359375,-1.8072509765625,0.81298828125
2021-09-24 22:47:49.705101,0.03369140625,0.56396484375,0.85400390625,33.3929443359375,-1.8072509765625,0.81298828125
2021-09-24 22:47:49.705280,0.03173828125,0.564453125,0.85107421875,33.3984375,-1.8072509765625,0.81298828125
2021-09-24 22:47:49.705398,0.033203125,0.56494140625,0.84912109375,33.3984375,-1.8072509765625,0.81298828125
2021-09-24 22:47:49.705513,0.03515625,0.5634765625,0.85205078125,33.3984375,-1.812744140625,0.81298828125
2021-09-24 22:47:49.705629,0.03369140625,0.560546875,0.85400390625,33.3984375,-1.812744140625,0.81298828125
2021-09-24 22:47:49.705743,0.03369140625,0.5615234375,0.8544921875,33.3984375,-1.812744140625,0.81298828125
2021-09-24 22:47:49.705856,0.0341796875,0.56298828125,0.85546875,33.3984375,-1.812744140625,0.81298828125
2021-09-24 22:47:49.705969,0.03271484375,0.5654296875,0.85302734375,33.3929443359375,-1.812744140625,0.81298828125
2021-09-24 22:47:49.706084,0.03369140625,0.56591796875,0.85400390625,33.3929443359375,-1.812744140625,0.81298828125
2021-09-24 22:47:49.706197,0.03125,0.56396484375,0.85546875,33.3929443359375,-1.812744140625,0.81298828125
2021-09-24 22:47:49.706312,0.0322265625,0.5634765625,0.8544921875,33.3929443359375,-1.812744140625,0.81298828125
2021-09-24 22:47:49.706428,0.03173828125,0.56201171875,0.8544921875,33.3984375,-1.812744140625,0.81298828125
2021-09-24 22:47:49.706539,0.03076171875,0.5615234375,0.8515625,33.3984375,-1.812744140625,0.81298828125
2021-09-24 22:47:49.706656,0.03271484375,0.56298828125,0.853515625,33.3984375,-1.812744140625,0.81298828125
2021-09-24 22:47:49.706775,0.033203125,0.5654296875,0.85205078125,33.3984375,-1.812744140625,0.81298828125
2021-09-24 22:47:49.706892,0.033203125,0.564453125,0.853515625,33.3984375,-1.812744140625,0.81298828125
2021-09-24 22:47:49.707010,0.03466796875,0.56494140625,0.85693359375,33.3984375,-1.812744140625,0.81298828125
2021-09-24 22:47:49.707127,0.033203125,0.56494140625,0.8515625,33.3984375,-1.812744140625,0.81298828125
2021-09-24 22:47:49.707241,0.03125,0.56201171875,0.85107421875,33.3984375,-1.812744140625,0.81298828125
2021-09-24 22:47:49.707350,0.03173828125,0.5634765625,0.853515625,33.3984375,-1.812744140625,0.81298828125
2021-09-24 22:47:49.707456,0.0302734375,0.5634765625,0.8505859375,33.3984375,-1.812744140625,0.81298828125
2021-09-24 22:47:49.707561,0.03125,0.56396484375,0.853515625,33.4039306640625,-1.8072509765625,0.81298828125
2021-09-24 22:47:49.707661,0.03369140625,0.564453125,0.8544921875,33.4039306640625,-1.8072509765625,0.81298828125
2021-09-24 22:47:49.707816,0.0341796875,0.564453125,0.85009765625,33.4039306640625,-1.8072509765625,0.81298828125
2021-09-24 22:47:49.707979,0.033203125,0.56396484375,0.853515625,33.4039306640625,-1.8017578125,0.81298828125
2021-09-24 22:47:49.708126,0.03173828125,0.56396484375,0.85400390625,33.4039306640625,-1.8017578125,0.81298828125
2021-09-24 22:47:49.708271,0.0322265625,0.5654296875,0.8505859375,33.4039306640625,-1.8072509765625,0.81298828125
2021-09-24 22:47:49.708420,0.0322265625,0.56298828125,0.853515625,33.409423828125,-1.8072509765625,0.81298828125
2021-09-24 22:47:49.708564,0.03076171875,0.56103515625,0.8525390625,33.4039306640625,-1.8072509765625,0.81298828125
2021-09-24 22:47:49.708686,0.0302734375,0.5615234375,0.85400390625,33.4039306640625,-1.8072509765625,0.81298828125
2021-09-24 22:47:49.708804,0.03125,0.55908203125,0.8515625,33.4039306640625,-1.8072509765625,0.81298828125
2021-09-24 22:47:49.708919,0.033203125,0.5634765625,0.849609375,33.4039306640625,-1.8072509765625,0.81298828125
2021-09-24 22:47:49.709030,0.033203125,0.564453125,0.85205078125,33.4039306640625,-1.8017578125,0.81298828125
2021-09-24 22:47:49.709139,0.03564453125,0.564453125,0.8515625,33.409423828125,-1.8072509765625,0.81298828125
2021-09-24 22:47:49.709278,0.03466796875,0.56298828125,0.85205078125,33.409423828125,-1.8072509765625,0.81298828125
2021-09-24 22:47:49.709403,0.0341796875,0.5625,0.85595703125,33.409423828125,-1.8072509765625,0.81298828125
2021-09-24 22:47:49.709515,0.03271484375,0.560546875,0.85107421875,33.409423828125,-1.8072509765625,0.81298828125
2021-09-24 22:47:49.709624,0.03271484375,0.56201171875,0.8515625,33.409423828125,-1.8072509765625,0.81298828125
2021-09-24 22:47:49.709731,0.03125,0.56298828125,0.8525390625,33.409423828125,-1.8072509765625,0.81298828125
2021-09-24 22:47:49.709840,0.03076171875,0.56298828125,0.85107421875,33.409423828125,-1.8072509765625,0.81298828125
2021-09-24 22:47:49.709949,0.0322265625,0.56201171875,0.85546875,33.409423828125,-1.8072509765625,0.81298828125
2021-09-24 22:47:49.710056,0.03271484375,0.5634765625,0.85302734375,33.409423828125,-1.8072509765625,0.81298828125
2021-09-24 22:47:49.710164,0.03076171875,0.5625,0.85498046875,33.4039306640625,-1.8072509765625,0.81298828125
2021-09-24 22:47:49.710281,0.03125,0.5625,0.8544921875,33.4039306640625,-1.8072509765625,0.81298828125
2021-09-24 22:47:49.710400,0.03125,0.5634765625,0.8544921875,33.4039306640625,-1.8072509765625,0.81298828125
2021-09-24 22:47:49.710553,0.03173828125,0.56298828125,0.8544921875,33.4039306640625,-1.8072509765625,0.81298828125
2021-09-24 22:47:49.710698,0.03173828125,0.56396484375,0.85400390625,33.4039306640625,-1.8072509765625,0.81298828125
2021-09-24 22:47:49.710835,0.0322265625,0.56298828125,0.853515625,33.4039306640625,-1.8072509765625,0.81298828125
2021-09-24 22:47:49.710973,0.03369140625,0.5634765625,0.85498046875,33.4039306640625,-1.8072509765625,0.81298828125
2021-09-24 22:47:49.711105,0.0302734375,0.5625,0.853515625,33.4039306640625,-1.8072509765625,0.81298828125
2021-09-24 22:47:49.711234,0.03125,0.564453125,0.85302734375,33.4039306640625,-1.8072509765625,0.81298828125
2021-09-24 22:47:49.711385,0.0322265625,0.56298828125,0.8525390625,33.409423828125,-1.8072509765625,0.81298828125
2021-09-24 22:47:49.711525,0.03173828125,0.56298828125,0.85205078125,33.409423828125,-1.8017578125,0.81298828125
2021-09-24 22:47:49.711658,0.033203125,0.56396484375,0.85595703125,33.409423828125,-1.8072509765625,0.81298828125
2021-09-24 22:47:49.711798,0.03125,0.56298828125,0.8525390625,33.409423828125,-1.8017578125,0.81298828125
2021-09-24 22:47:49.711935,0.0322265625,0.56396484375,0.8525390625,33.409423828125,-1.8017578125,0.81298828125
2021-09-24 22:47:49.712070,0.03369140625,0.56298828125,0.85546875,33.409423828125,-1.8072509765625,0.81298828125
2021-09-24 22:47:49.712235,0.0322265625,0.5634765625,0.849609375,33.409423828125,-1.8072509765625,0.81298828125
2021-09-24 22:47:49.712391,0.03271484375,0.56396484375,0.8515625,33.409423828125,-1.8072509765625,0.81298828125
2021-09-24 22:47:49.712539,0.03369140625,0.56396484375,0.85400390625,33.409423828125,-1.8072509765625,0.81298828125
2021-09-24 22:47:49.712697,0.033203125,0.564453125,0.85205078125,33.409423828125,-1.8072509765625,0.81298828125
2021-09-24 22:47:49.712862,0.03466796875,0.56396484375,0.853515625,33.409423828125,-1.8072509765625,0.81298828125
2021-09-24 22:47:49.713006,0.03466796875,0.56396484375,0.853515625,33.409423828125,-1.8072509765625,0.81298828125
2021-09-24 22:47:49.713152,0.03173828125,0.5634765625,0.85302734375,33.4149169921875,-1.812744140625,0.81298828125
2021-09-24 22:47:49.713314,0.03271484375,0.5634765625,0.85302734375,33.4149169921875,-1.812744140625,0.81298828125
2021-09-24 22:47:49.713467,0.0322265625,0.5615234375,0.85595703125,33.409423828125,-1.812744140625,0.81298828125
2021-09-24 22:47:49.713613,0.0302734375,0.56201171875,0.8515625,33.409423828125,-1.8072509765625,0.81298828125
2021-09-24 22:47:49.713761,0.03125,0.56298828125,0.853515625,33.409423828125,-1.8072509765625,0.81298828125
2021-09-24 22:47:49.713908,0.03173828125,0.5634765625,0.853515625,33.409423828125,-1.8072509765625,0.81298828125
2021-09-24 22:47:49.714056,0.033203125,0.5615234375,0.85595703125,33.409423828125,-1.8072509765625,0.81298828125
2021-09-24 22:47:49.714218,0.03662109375,0.5615234375,0.85498046875,33.409423828125,-1.812744140625,0.81298828125
2021-09-24 22:47:49.714362,0.0341796875,0.56298828125,0.853515625,33.409423828125,-1.812744140625,0.81298828125
2021-09-24 22:47:49.714498,0.0322265625,0.5634765625,0.85107421875,33.409423828125,-1.812744140625,0.81298828125
2021-09-24 22:47:49.714635,0.03466796875,0.56298828125,0.85546875,33.409423828125,-1.812744140625,0.81298828125
2021-09-24 22:47:49.714771,0.03076171875,0.5625,0.85400390625,33.409423828125,-1.812744140625,0.81298828125
2021-09-24 22:47:49.714902,0.03076171875,0.5634765625,0.8544921875,33.409423828125,-1.812744140625,0.81298828125
2021-09-24 22:47:49.715034,0.03173828125,0.5634765625,0.85302734375,33.409423828125,-1.812744140625,0.81298828125
2021-09-24 22:47:49.715165,0.03125,0.564453125,0.853515625,33.409423828125,-1.812744140625,0.81298828125
2021-09-24 22:47:49.715300,0.03173828125,0.5654296875,0.85302734375,33.409423828125,-1.812744140625,0.81298828125
2021-09-24 22:47:49.715438,0.033203125,0.5654296875,0.8515625,33.4149169921875,-1.812744140625,0.81298828125
2021-09-24 22:47:49.715565,0.0341796875,0.56396484375,0.85546875,33.4149169921875,-1.812744140625,0.81298828125
2021-09-24 22:47:49.715671,0.0341796875,0.5615234375,0.85498046875,33.409423828125,-1.812744140625,0.81298828125
2021-09-24 22:47:49.715778,0.033203125,0.56298828125,0.85009765625,33.4149169921875,-1.812744140625,0.81298828125
2021-09-24 22:47:49.715884,0.033203125,0.5634765625,0.8515625,33.4149169921875,-1.812744140625,0.81298828125
2021-09-24 22:47:49.716008,0.03271484375,0.56298828125,0.8544921875,33.4149169921875,-1.812744140625,0.81298828125
2021-09-24 22:47:49.716122,0.033203125,0.5634765625,0.8515625,33.4149169921875,-1.812744140625,0.81298828125
2021-09-24 22:47:49.716224,0.03369140625,0.5634765625,0.85205078125,33.4149169921875,-1.812744140625,0.81298828125
2021-09-24 22:47:49.716325,0.03369140625,0.5654296875,0.8515625,33.4149169921875,-1.8182373046875,0.81298828125
2021-09-24 22:47:49.716452,0.033203125,0.5634765625,0.85498046875,33.4149169921875,-1.8182373046875,0.81298828125
2021-09-24 22:47:49.716586,0.03125,0.56201171875,0.85400390625,33.4149169921875,-1.8182373046875,0.81298828125
2021-09-24 22:47:49.716717,0.03271484375,0.56396484375,0.85205078125,33.4149169921875,-1.8182373046875,0.81298828125
2021-09-24 22:47:49.716849,0.033203125,0.56396484375,0.85205078125,33.4149169921875,-1.8182373046875,0.81298828125
2021-09-24 22:47:49.716981,0.03173828125,0.5634765625,0.85107421875,33.4149169921875,-1.8182373046875,0.81298828125
2021-09-24 22:47:49.717111,0.03125,0.56298828125,0.853515625,33.4149169921875,-1.812744140625,0.81298828125
2021-09-24 22:47:49.717250,0.03271484375,0.56201171875,0.8544921875,33.4149169921875,-1.812744140625,0.81298828125
2021-09-24 22:47:49.717399,0.0302734375,0.56201171875,0.8505859375,33.4149169921875,-1.812744140625,0.81298828125
2021-09-24 22:47:49.717552,0.03173828125,0.56201171875,0.85205078125,33.4149169921875,-1.812744140625,0.81298828125
2021-09-24 22:47:49.717692,0.03173828125,0.5625,0.8515625,33.4149169921875,-1.812744140625,0.81298828125
2021-09-24 22:47:49.717825,0.0341796875,0.56396484375,0.8525390625,33.4149169921875,-1.812744140625,0.81298828125
2021-09-24 22:47:49.717957,0.03271484375,0.564453125,0.85400390625,33.42041015625,-1.812744140625,0.81298828125
2021-09-24 22:47:49.718091,0.033203125,0.56005859375,0.8544921875,33.4149169921875,-1.8182373046875,0.81298828125
2021-09-24 22:47:49.718224,0.033203125,0.5615234375,0.8544921875,33.4149169921875,-1.8182373046875,0.81298828125
2021-09-24 22:47:49.718359,0.033203125,0.560546875,0.85400390625,33.4149169921875,-1.8182373046875,0.81298828125
2021-09-24 22:47:49.718491,0.03271484375,0.56201171875,0.85302734375,33.4149169921875,-1.8182373046875,0.81298828125
2021-09-24 22:47:49.718636,0.03271484375,0.56494140625,0.85302734375,33.4149169921875,-1.812744140625,0.81298828125
2021-09-24 22:47:49.718764,0.0322265625,0.5634765625,0.8544921875,33.4149169921875,-1.812744140625,0.81298828125
2021-09-24 22:47:49.718901,0.03271484375,0.564453125,0.85302734375,33.4149169921875,-1.812744140625,0.81298828125
2021-09-24 22:47:49.719024,0.033203125,0.56494140625,0.85400390625,33.4149169921875,-1.8182373046875,0.81298828125
2021-09-24 22:47:49.719154,0.0322265625,0.56201171875,0.85400390625,33.4149169921875,-1.8182373046875,0.81298828125
2021-09-24 22:47:49.719284,0.03271484375,0.564453125,0.85107421875,33.4149169921875,-1.8182373046875,0.81298828125
2021-09-24 22:47:49.719414,0.0341796875,0.5615234375,0.8544921875,33.4149169921875,-1.8182373046875,0.81298828125
2021-09-24 22:47:49.719545,0.0341796875,0.5634765625,0.85009765625,33.4149169921875,-1.8182373046875,0.81298828125
2021-09-24 22:47:49.719677,0.03271484375,0.56298828125,0.85302734375,33.4149169921875,-1.8182373046875,0.81298828125
2021-09-24 22:47:49.719808,0.033203125,0.5634765625,0.8515625,33.4149169921875,-1.8182373046875,0.81298828125
2021-09-24 22:47:49.719937,0.03125,0.56396484375,0.85009765625,33.42041015625,-1.8182373046875,0.81298828125
2021-09-24 22:47:49.720063,0.03369140625,0.5615234375,0.8525390625,33.42041015625,-1.8182373046875,0.81298828125
2021-09-24 22:47:49.720213,0.03173828125,0.5625,0.85205078125,33.42041015625,-1.812744140625,0.81298828125
2021-09-24 22:47:49.720361,0.03271484375,0.5634765625,0.85400390625,33.42041015625,-1.8182373046875,0.81298828125
2021-09-24 22:47:49.720513,0.03466796875,0.564453125,0.8583984375,33.4149169921875,-1.8182373046875,0.81298828125
2021-09-24 22:47:49.720669,0.03173828125,0.5654296875,0.85302734375,33.42041015625,-1.812744140625,0.81298828125
2021-09-24 22:47:49.720824,0.03369140625,0.5654296875,0.85546875,33.42041015625,-1.8182373046875,0.81298828125
2021-09-24 22:47:49.720980,0.03369140625,0.5634765625,0.85693359375,33.42041015625,-1.8182373046875,0.81298828125
2021-09-24 22:47:49.721152,0.0322265625,0.56298828125,0.8505859375,33.42041015625,-1.8182373046875,0.81298828125
2021-09-24 22:47:49.721373,0.03271484375,0.5625,0.849609375,33.42041015625,-1.8182373046875,0.81298828125
2021-09-24 22:47:49.721514,0.03369140625,0.56396484375,0.85400390625,33.42041015625,-1.8182373046875,0.81298828125
2021-09-24 22:47:49.721659,0.033203125,0.56396484375,0.85400390625,33.42041015625,-1.8182373046875,0.81298828125
2021-09-24 22:47:49.721795,0.033203125,0.564453125,0.85498046875,33.42041015625,-1.8182373046875,0.81298828125
2021-09-24 22:47:49.721937,0.03125,0.5615234375,0.853515625,33.42041015625,-1.8182373046875,0.81298828125
2021-09-24 22:47:49.722071,0.03125,0.56298828125,0.85498046875,33.42041015625,-1.8182373046875,0.81298828125
2021-09-24 22:47:49.722205,0.03173828125,0.5625,0.85302734375,33.42041015625,-1.8182373046875,0.81298828125
2021-09-24 22:47:49.722361,0.03125,0.56201171875,0.85400390625,33.42041015625,-1.8182373046875,0.81298828125
2021-09-24 22:47:49.722508,0.033203125,0.56298828125,0.853515625,33.4149169921875,-1.8182373046875,0.81298828125
2021-09-24 22:47:49.722673,0.0322265625,0.56201171875,0.85400390625,33.4149169921875,-1.8182373046875,0.81298828125
2021-09-24 22:47:49.722814,0.03271484375,0.564453125,0.8515625,33.42041015625,-1.8182373046875,0.81298828125
2021-09-24 22:47:49.722954,0.03271484375,0.5625,0.85400390625,33.4149169921875,-1.8182373046875,0.81298828125
2021-09-24 22:47:49.723096,0.0322265625,0.56298828125,0.8505859375,33.42041015625,-1.8182373046875,0.81298828125
2021-09-24 22:47:49.723237,0.033203125,0.56396484375,0.85205078125,33.42041015625,-1.8182373046875,0.81298828125
2021-09-24 22:47:49.723373,0.03173828125,0.56494140625,0.85205078125,33.42041015625,-1.8182373046875,0.81298828125
2021-09-24 22:47:49.723503,0.033203125,0.5634765625,0.8515625,33.42041015625,-1.8182373046875,0.81298828125
2021-09-24 22:47:49.723638,0.03369140625,0.5634765625,0.85546875,33.42041015625,-1.8182373046875,0.81298828125
2021-09-24 22:47:49.723781,0.03173828125,0.56201171875,0.8525390625,33.42041015625,-1.8182373046875,0.81298828125
2021-09-24 22:47:49.723913,0.0322265625,0.5615234375,0.849609375,33.42041015625,-1.8182373046875,0.81298828125
2021-09-24 22:47:49.724060,0.0302734375,0.56103515625,0.8544921875,33.42041015625,-1.8182373046875,0.81298828125
2021-09-24 22:47:49.724211,0.0302734375,0.56201171875,0.8515625,33.42041015625,-1.812744140625,0.81298828125
2021-09-24 22:47:49.724339,0.03271484375,0.56298828125,0.8544921875,33.42041015625,-1.812744140625,0.81298828125
2021-09-24 22:47:49.724486,0.03369140625,0.5634765625,0.85498046875,33.42041015625,-1.812744140625,0.81298828125
2021-09-24 22:47:49.724633,0.033203125,0.5634765625,0.8515625,33.42041015625,-1.812744140625,0.81298828125
2021-09-24 22:47:49.724779,0.03369140625,0.564453125,0.8564453125,33.42041015625,-1.812744140625,0.81298828125
2021-09-24 22:47:49.724927,0.03076171875,0.56298828125,0.85400390625,33.42041015625,-1.812744140625,0.81298828125
2021-09-24 22:47:49.725058,0.03173828125,0.5625,0.85205078125,33.42041015625,-1.812744140625,0.81298828125
2021-09-24 22:47:49.725190,0.03271484375,0.56201171875,0.85498046875,33.42041015625,-1.812744140625,0.81298828125
2021-09-24 22:47:49.725336,0.03369140625,0.564453125,0.8544921875,33.42041015625,-1.812744140625,0.81298828125
2021-09-24 22:47:49.725445,0.03466796875,0.56494140625,0.8564453125,33.42041015625,-1.8182373046875,0.81298828125
2021-09-24 22:47:49.725573,0.03271484375,0.56298828125,0.85595703125,33.4149169921875,-1.8182373046875,0.81298828125
2021-09-24 22:47:49.725711,0.03125,0.56298828125,0.85400390625,33.4149169921875,-1.812744140625,0.81298828125
2021-09-24 22:47:49.725843,0.03173828125,0.5634765625,0.85546875,33.4149169921875,-1.812744140625,0.81298828125
2021-09-24 22:47:49.725974,0.033203125,0.56298828125,0.85400390625,33.4149169921875,-1.812744140625,0.81298828125
2021-09-24 22:47:49.726108,0.0322265625,0.5625,0.85498046875,33.4149169921875,-1.812744140625,0.81298828125
2021-09-24 22:47:49.726242,0.03271484375,0.5634765625,0.85595703125,33.4149169921875,-1.812744140625,0.81298828125
2021-09-24 22:47:49.726374,0.03271484375,0.5634765625,0.8544921875,33.4149169921875,-1.8182373046875,0.81298828125
2021-09-24 22:47:49.726507,0.0322265625,0.56201171875,0.85498046875,33.4149169921875,-1.812744140625,0.81298828125
2021-09-24 22:47:49.726640,0.03369140625,0.56298828125,0.8544921875,33.4149169921875,-1.8182373046875,0.81298828125
2021-09-24 22:47:49.726774,0.03125,0.56298828125,0.849609375,33.4149169921875,-1.812744140625,0.81298828125
2021-09-24 22:47:49.726900,0.03173828125,0.5634765625,0.85400390625,33.4149169921875,-1.812744140625,0.81298828125
2021-09-24 22:47:49.727027,0.03125,0.56396484375,0.85009765625,33.4149169921875,-1.812744140625,0.81298828125
2021-09-24 22:47:49.727166,0.033203125,0.5625,0.853515625,33.4149169921875,-1.812744140625,0.81298828125
2021-09-24 22:47:49.727305,0.033203125,0.56201171875,0.85205078125,33.4149169921875,-1.812744140625,0.81298828125
2021-09-24 22:47:49.727441,0.03173828125,0.56201171875,0.8515625,33.4149169921875,-1.812744140625,0.81298828125
2021-09-24 22:47:49.727575,0.03271484375,0.56103515625,0.8525390625,33.4149169921875,-1.812744140625,0.81298828125
2021-09-24 22:47:49.727708,0.0322265625,0.5615234375,0.8515625,33.4149169921875,-1.812744140625,0.81298828125
2021-09-24 22:47:49.727843,0.03076171875,0.56103515625,0.85009765625,33.4149169921875,-1.812744140625,0.81298828125
2021-09-24 22:47:49.727977,0.03076171875,0.5625,0.8525390625,33.4149169921875,-1.812744140625,0.81298828125
2021-09-24 22:47:49.728109,0.03076171875,0.56591796875,0.85009765625,33.4149169921875,-1.812744140625,0.81298828125
2021-09-24 22:47:49.728242,0.0322265625,0.56396484375,0.8525390625,33.4149169921875,-1.812744140625,0.81298828125
2021-09-24 22:47:49.728375,0.03125,0.564453125,0.853515625,33.42041015625,-1.812744140625,0.81298828125
2021-09-24 22:47:49.728507,0.03125,0.564453125,0.8505859375,33.42041015625,-1.812744140625,0.81298828125
2021-09-24 22:47:49.728639,0.03466796875,0.56103515625,0.8525390625,33.42041015625,-1.812744140625,0.81298828125
2021-09-24 22:47:49.728775,0.033203125,0.560546875,0.85205078125,33.42041015625,-1.812744140625,0.81298828125
2021-09-24 22:47:49.728919,0.03173828125,0.56201171875,0.85302734375,33.4149169921875,-1.812744140625,0.81298828125
2021-09-24 22:47:49.729066,0.03076171875,0.56201171875,0.85107421875,33.42041015625,-1.812744140625,0.81298828125
2021-09-24 22:47:49.729200,0.03125,0.56201171875,0.85107421875,33.42041015625,-1.812744140625,0.81298828125
2021-09-24 22:47:49.729373,0.0322265625,0.56298828125,0.853515625,33.42041015625,-1.812744140625,0.81298828125
2021-09-24 22:47:49.729519,0.033203125,0.5625,0.85205078125,33.42041015625,-1.812744140625,0.81298828125
2021-09-24 22:47:49.729680,0.03466796875,0.56396484375,0.8525390625,33.42041015625,-1.812744140625,0.81298828125
2021-09-24 22:47:49.729829,0.03466796875,0.564453125,0.853515625,33.42041015625,-1.812744140625,0.81298828125
2021-09-24 22:47:49.729972,0.03271484375,0.5625,0.85302734375,33.42041015625,-1.812744140625,0.81298828125
2021-09-24 22:47:49.730116,0.03271484375,0.56494140625,0.8525390625,33.42041015625,-1.812744140625,0.81298828125
2021-09-24 22:47:49.730251,0.03369140625,0.564453125,0.85400390625,33.42041015625,-1.812744140625,0.81298828125
2021-09-24 22:47:49.730394,0.03369140625,0.56396484375,0.85205078125,33.42041015625,-1.8182373046875,0.81298828125
2021-09-24 22:47:49.730537,0.0341796875,0.5625,0.85498046875,33.42041015625,-1.8182373046875,0.81298828125
2021-09-24 22:47:49.730682,0.0341796875,0.56298828125,0.853515625,33.42041015625,-1.8182373046875,0.81298828125
2021-09-24 22:47:49.730822,0.0341796875,0.56201171875,0.8525390625,33.42041015625,-1.8182373046875,0.81298828125
2021-09-24 22:47:49.730961,0.03271484375,0.5615234375,0.8544921875,33.42041015625,-1.8182373046875,0.81298828125
2021-09-24 22:47:49.731104,0.03125,0.56298828125,0.85400390625,33.42041015625,-1.8182373046875,0.81298828125
2021-09-24 22:47:49.731248,0.03515625,0.564453125,0.853515625,33.42041015625,-1.8182373046875,0.81298828125
2021-09-24 22:47:49.731390,0.03369140625,0.56396484375,0.85400390625,33.42041015625,-1.8182373046875,0.81298828125
2021-09-24 22:47:49.731531,0.03271484375,0.5625,0.849609375,33.42041015625,-1.8182373046875,0.81298828125
2021-09-24 22:47:49.731669,0.033203125,0.56103515625,0.85498046875,33.42041015625,-1.8182373046875,0.81298828125
2021-09-24 22:47:49.731809,0.0322265625,0.5615234375,0.8486328125,33.42041015625,-1.8182373046875,0.81298828125
2021-09-24 22:47:49.731927,0.0341796875,0.560546875,0.85302734375,33.42041015625,-1.82373046875,0.81298828125
2021-09-24 22:47:49.732054,0.03369140625,0.5615234375,0.85400390625,33.4149169921875,-1.82373046875,0.81298828125
2021-09-24 22:47:49.732150,0.033203125,0.56396484375,0.8544921875,33.4149169921875,-1.82373046875,0.81298828125
2021-09-24 22:47:49.732248,0.03173828125,0.56298828125,0.85302734375,33.4149169921875,-1.82373046875,0.81298828125
2021-09-24 22:47:49.732384,0.03173828125,0.5634765625,0.85498046875,33.4149169921875,-1.82373046875,0.81298828125
2021-09-24 22:47:49.732519,0.03271484375,0.56396484375,0.85302734375,33.4149169921875,-1.82373046875,0.81298828125
2021-09-24 22:47:49.732657,0.0302734375,0.56298828125,0.85498046875,33.4149169921875,-1.8182373046875,0.81298828125
2021-09-24 22:47:49.732794,0.03173828125,0.560546875,0.85205078125,33.4149169921875,-1.8182373046875,0.81298828125
2021-09-24 22:47:49.732934,0.03125,0.56103515625,0.85107421875,33.4149169921875,-1.8182373046875,0.81298828125
2021-09-24 22:47:49.733074,0.03271484375,0.56201171875,0.85546875,33.4149169921875,-1.8182373046875,0.81298828125
2021-09-24 22:47:49.733219,0.0322265625,0.56201171875,0.8505859375,33.4149169921875,-1.8182373046875,0.81298828125
2021-09-24 22:47:49.733375,0.03466796875,0.564453125,0.85546875,33.4149169921875,-1.8182373046875,0.81298828125
2021-09-24 22:47:49.733522,0.033203125,0.56689453125,0.85302734375,33.4149169921875,-1.8182373046875,0.81298828125
2021-09-24 22:47:49.733665,0.0341796875,0.56298828125,0.8544921875,33.4149169921875,-1.82373046875,0.81298828125
2021-09-24 22:47:49.733808,0.033203125,0.56201171875,0.857421875,33.4149169921875,-1.82373046875,0.81298828125
2021-09-24 22:47:49.733958,0.03125,0.5654296875,0.8525390625,33.4149169921875,-1.82373046875,0.81298828125
2021-09-24 22:47:49.734114,0.03173828125,0.56298828125,0.85400390625,33.4149169921875,-1.8182373046875,0.81298828125
2021-09-24 22:47:49.734260,0.03173828125,0.5625,0.85205078125,33.4149169921875,-1.8182373046875,0.81298828125
2021-09-24 22:47:49.734407,0.03369140625,0.56396484375,0.8486328125,33.42041015625,-1.82373046875,0.81298828125
2021-09-24 22:47:49.734551,0.0341796875,0.56298828125,0.85302734375,33.42041015625,-1.82373046875,0.81298828125
2021-09-24 22:47:49.734711,0.033203125,0.56298828125,0.8525390625,33.42041015625,-1.82373046875,0.81298828125
2021-09-24 22:47:49.734855,0.0302734375,0.56396484375,0.849609375,33.42041015625,-1.82373046875,0.81298828125
2021-09-24 22:47:49.735000,0.03173828125,0.56494140625,0.85400390625,33.42041015625,-1.8182373046875,0.81298828125
2021-09-24 22:47:49.735149,0.03173828125,0.564453125,0.8525390625,33.42041015625,-1.8182373046875,0.81298828125
2021-09-24 22:47:49.735291,0.033203125,0.564453125,0.853515625,33.42041015625,-1.8182373046875,0.81298828125
2021-09-24 22:47:49.735437,0.0322265625,0.56201171875,0.8515625,33.42041015625,-1.8182373046875,0.81298828125
2021-09-24 22:47:49.735582,0.03271484375,0.56298828125,0.85546875,33.42041015625,-1.8182373046875,0.81298828125
2021-09-24 22:47:49.735723,0.03271484375,0.56201171875,0.85400390625,33.42041015625,-1.8182373046875,0.81298828125
2021-09-24 22:47:49.735867,0.0322265625,0.5625,0.8515625,33.42041015625,-1.8182373046875,0.81298828125
2021-09-24 22:47:49.736017,0.03173828125,0.564453125,0.85302734375,33.42041015625,-1.8182373046875,0.81298828125
2021-09-24 22:47:49.736149,0.033203125,0.56298828125,0.85595703125,33.42041015625,-1.8182373046875,0.81298828125
2021-09-24 22:47:49.736249,0.03271484375,0.56396484375,0.8525390625,33.42041015625,-1.8182373046875,0.81298828125
2021-09-24 22:47:49.736342,0.033203125,0.5625,0.85205078125,33.42041015625,-1.8182373046875,0.81298828125
2021-09-24 22:47:49.736435,0.0322265625,0.5625,0.85546875,33.42041015625,-1.8182373046875,0.81298828125
2021-09-24 22:47:49.736536,0.03173828125,0.5625,0.85400390625,33.42041015625,-1.8182373046875,0.81298828125
2021-09-24 22:47:49.736634,0.033203125,0.56201171875,0.85595703125,33.42041015625,-1.8182373046875,0.81298828125
2021-09-24 22:47:49.736732,0.03173828125,0.56396484375,0.85595703125,33.42041015625,-1.8182373046875,0.81298828125
2021-09-24 22:47:49.736829,0.0322265625,0.564453125,0.85546875,33.42041015625,-1.8182373046875,0.81298828125
2021-09-24 22:47:49.736928,0.0322265625,0.56298828125,0.8525390625,33.42041015625,-1.8182373046875,0.81298828125
2021-09-24 22:47:49.737028,0.033203125,0.56298828125,0.8515625,33.42041015625,-1.8182373046875,0.81298828125
2021-09-24 22:47:49.737129,0.03369140625,0.5634765625,0.853515625,33.42041015625,-1.8182373046875,0.81298828125
2021-09-24 22:47:49.737237,0.0341796875,0.56201171875,0.85302734375,33.42041015625,-1.8182373046875,0.81298828125
2021-09-24 22:47:49.737339,0.033203125,0.56298828125,0.85107421875,33.42041015625,-1.82373046875,0.81298828125
2021-09-24 22:47:49.737453,0.0322265625,0.564453125,0.85302734375,33.42041015625,-1.8182373046875,0.81298828125
2021-09-24 22:47:49.737560,0.033203125,0.564453125,0.85302734375,33.42041015625,-1.82373046875,0.81298828125
2021-09-24 22:47:49.737674,0.033203125,0.56201171875,0.85302734375,33.42041015625,-1.82373046875,0.81298828125
2021-09-24 22:47:49.737783,0.03271484375,0.5615234375,0.85595703125,33.42041015625,-1.82373046875,0.81298828125
2021-09-24 22:47:49.737895,0.03173828125,0.56396484375,0.857421875,33.4149169921875,-1.82373046875,0.81298828125
2021-09-24 22:47:49.738014,0.03564453125,0.5625,0.853515625,33.4149169921875,-1.82373046875,0.81298828125
2021-09-24 22:47:49.738124,0.033203125,0.56201171875,0.8544921875,33.4149169921875,-1.82373046875,0.81298828125
2021-09-24 22:47:49.738232,0.033203125,0.5625,0.85205078125,33.4149169921875,-1.82373046875,0.81298828125
2021-09-24 22:47:49.738338,0.0302734375,0.564453125,0.85205078125,33.4149169921875,-1.82373046875,0.81298828125
2021-09-24 22:47:49.738447,0.033203125,0.56201171875,0.8525390625,33.4149169921875,-1.82373046875,0.81298828125
2021-09-24 22:47:49.738591,0.03173828125,0.56396484375,0.853515625,33.4149169921875,-1.82373046875,0.81298828125
2021-09-24 22:47:49.738691,0.033203125,0.56103515625,0.85498046875,33.4149169921875,-1.82373046875,0.81298828125
2021-09-24 22:47:49.738787,0.033203125,0.5615234375,0.8525390625,33.4149169921875,-1.82373046875,0.81298828125
2021-09-24 22:47:49.738887,0.0322265625,0.56298828125,0.85205078125,33.4149169921875,-1.82373046875,0.81298828125
2021-09-24 22:47:49.738996,0.0322265625,0.56298828125,0.85498046875,33.4149169921875,-1.82373046875,0.81298828125
2021-09-24 22:47:49.739109,0.03271484375,0.56396484375,0.85400390625,33.4149169921875,-1.82373046875,0.81298828125
2021-09-24 22:47:49.739226,0.0341796875,0.5634765625,0.8525390625,33.4149169921875,-1.82373046875,0.81298828125
2021-09-24 22:47:49.739334,0.03369140625,0.56201171875,0.85302734375,33.4149169921875,-1.82373046875,0.81298828125
2021-09-24 22:47:49.739449,0.03271484375,0.56298828125,0.85400390625,33.4149169921875,-1.82373046875,0.81298828125
2021-09-24 22:47:49.739560,0.0322265625,0.5625,0.85107421875,33.4149169921875,-1.82373046875,0.81298828125
2021-09-24 22:47:49.739687,0.03076171875,0.5634765625,0.85498046875,33.4149169921875,-1.82373046875,0.81298828125
2021-09-24 22:47:49.739787,0.03271484375,0.56298828125,0.85302734375,33.4149169921875,-1.82373046875,0.81298828125
2021-09-24 22:47:49.739884,0.03125,0.5625,0.8544921875,33.4149169921875,-1.82373046875,0.81298828125
2021-09-24 22:47:49.739984,0.033203125,0.56396484375,0.8544921875,33.4149169921875,-1.82373046875,0.81298828125
2021-09-24 22:47:49.740095,0.033203125,0.5625,0.85302734375,33.4149169921875,-1.82373046875,0.81298828125
2021-09-24 22:47:49.740190,0.0341796875,0.5634765625,0.85546875,33.4149169921875,-1.82373046875,0.81298828125
2021-09-24 22:47:49.740324,0.03271484375,0.56396484375,0.85595703125,33.4149169921875,-1.82373046875,0.81298828125
2021-09-24 22:47:49.740431,0.0341796875,0.5615234375,0.85498046875,33.4149169921875,-1.82373046875,0.81298828125
2021-09-24 22:47:49.740526,0.03369140625,0.5625,0.85546875,33.409423828125,-1.82373046875,0.81298828125
2021-09-24 22:47:49.740621,0.0322265625,0.56103515625,0.85498046875,33.409423828125,-1.82373046875,0.81298828125
2021-09-24 22:47:49.740717,0.03173828125,0.5615234375,0.85400390625,33.409423828125,-1.82373046875,0.81298828125
2021-09-24 22:47:49.740813,0.03466796875,0.5625,0.85498046875,33.409423828125,-1.82373046875,0.81298828125
2021-09-24 22:47:49.740912,0.0322265625,0.5625,0.85400390625,33.409423828125,-1.82373046875,0.81298828125
2021-09-24 22:47:49.741012,0.03271484375,0.56298828125,0.8544921875,33.409423828125,-1.82373046875,0.81298828125
2021-09-24 22:47:49.741119,0.033203125,0.5625,0.853515625,33.409423828125,-1.82373046875,0.81298828125
2021-09-24 22:47:49.741220,0.03271484375,0.56298828125,0.853515625,33.409423828125,-1.82373046875,0.81298828125
2021-09-24 22:47:49.741333,0.0322265625,0.56201171875,0.85400390625,33.409423828125,-1.82373046875,0.81298828125
2021-09-24 22:47:49.741435,0.03125,0.564453125,0.85009765625,33.409423828125,-1.82373046875,0.81298828125
2021-09-24 22:47:49.741535,0.03125,0.56298828125,0.84814453125,33.409423828125,-1.82373046875,0.81298828125
2021-09-24 22:47:49.741647,0.03369140625,0.56298828125,0.85107421875,33.409423828125,-1.82373046875,0.81298828125
2021-09-24 22:47:49.741735,0.03125,0.56298828125,0.8525390625,33.409423828125,-1.82373046875,0.81298828125
2021-09-24 22:47:49.741827,0.03125,0.56396484375,0.85498046875,33.409423828125,-1.82373046875,0.81298828125
2021-09-24 22:47:49.741919,0.0341796875,0.56201171875,0.85400390625,33.409423828125,-1.82373046875,0.81298828125
2021-09-24 22:47:49.742018,0.03173828125,0.56201171875,0.8525390625,33.409423828125,-1.82373046875,0.81298828125
2021-09-24 22:47:49.742112,0.033203125,0.5615234375,0.85400390625,33.409423828125,-1.82373046875,0.81298828125
2021-09-24 22:47:49.742204,0.03466796875,0.5625,0.8505859375,33.409423828125,-1.82373046875,0.81298828125
2021-09-24 22:47:49.742301,0.0322265625,0.56396484375,0.85205078125,33.409423828125,-1.82373046875,0.81298828125
2021-09-24 22:47:49.742394,0.0341796875,0.56298828125,0.8515625,33.409423828125,-1.82373046875,0.81298828125
2021-09-24 22:47:49.742485,0.03369140625,0.56298828125,0.8544921875,33.409423828125,-1.82373046875,0.81298828125
2021-09-24 22:47:49.742576,0.03271484375,0.56298828125,0.85205078125,33.409423828125,-1.82373046875,0.81298828125
2021-09-24 22:47:49.742668,0.03369140625,0.564453125,0.85595703125,33.409423828125,-1.82373046875,0.81298828125
2021-09-24 22:47:49.742758,0.03369140625,0.56396484375,0.853515625,33.4149169921875,-1.8292236328125,0.81298828125
2021-09-24 22:47:49.742851,0.033203125,0.5634765625,0.8525390625,33.4149169921875,-1.8292236328125,0.81298828125
2021-09-24 22:47:49.742942,0.03076171875,0.564453125,0.85498046875,33.4149169921875,-1.82373046875,0.81298828125
2021-09-24 22:47:49.743037,0.03173828125,0.56494140625,0.85107421875,33.4149169921875,-1.82373046875,0.81298828125
2021-09-24 22:47:49.743130,0.03271484375,0.56396484375,0.85205078125,33.4149169921875,-1.82373046875,0.81298828125
2021-09-24 22:47:49.743222,0.033203125,0.56298828125,0.85400390625,33.4149169921875,-1.82373046875,0.81298828125
2021-09-24 22:47:49.743313,0.03173828125,0.5625,0.85546875,33.4149169921875,-1.82373046875,0.81298828125
2021-09-24 22:47:49.743405,0.02978515625,0.56201171875,0.8515625,33.4149169921875,-1.82373046875,0.81298828125
2021-09-24 22:47:49.743496,0.03173828125,0.56201171875,0.85400390625,33.4149169921875,-1.82373046875,0.81298828125
2021-09-24 22:47:49.743587,0.0322265625,0.56298828125,0.8564453125,33.4149169921875,-1.82373046875,0.81298828125
2021-09-24 22:47:49.743677,0.03369140625,0.56298828125,0.85595703125,33.409423828125,-1.82373046875,0.81298828125
2021-09-24 22:47:49.743773,0.033203125,0.5634765625,0.85302734375,33.409423828125,-1.82373046875,0.81298828125
2021-09-24 22:47:49.743869,0.03173828125,0.5625,0.85595703125,33.409423828125,-1.82373046875,0.81298828125
2021-09-24 22:47:49.743964,0.0322265625,0.5615234375,0.85498046875,33.409423828125,-1.82373046875,0.81298828125
2021-09-24 22:47:49.744059,0.0322265625,0.5634765625,0.8544921875,33.409423828125,-1.82373046875,0.81298828125
2021-09-24 22:47:49.744153,0.03369140625,0.5625,0.85498046875,33.409423828125,-1.82373046875,0.81298828125
2021-09-24 22:47:49.744248,0.033203125,0.56201171875,0.853515625,33.409423828125,-1.82373046875,0.81298828125
2021-09-24 22:47:49.744345,0.033203125,0.5615234375,0.8515625,33.409423828125,-1.82373046875,0.81298828125
2021-09-24 22:47:49.744436,0.03271484375,0.56298828125,0.853515625,33.409423828125,-1.82373046875,0.81298828125
2021-09-24 22:47:49.744526,0.0341796875,0.56396484375,0.853515625,33.409423828125,-1.82373046875,0.81298828125
2021-09-24 22:47:49.744619,0.033203125,0.56201171875,0.85498046875,33.409423828125,-1.82373046875,0.81298828125
2021-09-24 22:47:49.744709,0.03271484375,0.5615234375,0.85400390625,33.409423828125,-1.82373046875,0.81298828125
2021-09-24 22:47:49.744806,0.03369140625,0.5625,0.853515625,33.409423828125,-1.82373046875,0.81298828125
2021-09-24 22:47:49.744899,0.03271484375,0.56298828125,0.8544921875,33.4039306640625,-1.82373046875,0.81298828125
2021-09-24 22:47:49.744991,0.0322265625,0.5625,0.8525390625,33.4039306640625,-1.82373046875,0.81298828125
2021-09-24 22:47:49.745081,0.03369140625,0.56201171875,0.85302734375,33.4039306640625,-1.8292236328125,0.81298828125
2021-09-24 22:47:49.745174,0.0341796875,0.56298828125,0.85693359375,33.4039306640625,-1.8292236328125,0.81298828125
2021-09-24 22:47:49.745275,0.03125,0.56298828125,0.85400390625,33.4039306640625,-1.8292236328125,0.81298828125
2021-09-24 22:47:49.745366,0.0302734375,0.56298828125,0.8525390625,33.4039306640625,-1.82373046875,0.81298828125
2021-09-24 22:47:49.745456,0.0322265625,0.56201171875,0.85498046875,33.4039306640625,-1.82373046875,0.81298828125
2021-09-24 22:47:49.745547,0.033203125,0.56201171875,0.85498046875,33.4039306640625,-1.82373046875,0.81298828125
2021-09-24 22:47:49.745637,0.03271484375,0.56298828125,0.85400390625,33.4039306640625,-1.82373046875,0.81298828125
2021-09-24 22:47:49.745733,0.0341796875,0.5625,0.8544921875,33.4039306640625,-1.82373046875,0.81298828125
2021-09-24 22:47:49.745825,0.03271484375,0.5625,0.85009765625,33.4039306640625,-1.8292236328125,0.81298828125
2021-09-24 22:47:49.745915,0.033203125,0.5625,0.853515625,33.4039306640625,-1.8292236328125,0.81298828125
2021-09-24 22:47:49.746005,0.0322265625,0.56396484375,0.85205078125,33.4039306640625,-1.8292236328125,0.81298828125
2021-09-24 22:47:49.746095,0.03369140625,0.56396484375,0.85400390625,33.4039306640625,-1.8292236328125,0.81298828125
2021-09-24 22:47:49.746186,0.03271484375,0.5625,0.85498046875,33.4039306640625,-1.8292236328125,0.81298828125
2021-09-24 22:47:49.746276,0.0322265625,0.5625,0.853515625,33.4039306640625,-1.8292236328125,0.81298828125
2021-09-24 22:47:49.746366,0.03125,0.564453125,0.8525390625,33.4039306640625,-1.82373046875,0.81298828125
2021-09-24 22:47:49.746456,0.03271484375,0.56201171875,0.8515625,33.4039306640625,-1.82373046875,0.81298828125
2021-09-24 22:47:49.746560,0.0322265625,0.564453125,0.8525390625,33.4039306640625,-1.82373046875,0.81298828125
2021-09-24 22:47:49.746685,0.03369140625,0.56298828125,0.8544921875,33.4039306640625,-1.8292236328125,0.81298828125
2021-09-24 22:47:49.746812,0.033203125,0.56298828125,0.8544921875,33.4039306640625,-1.8292236328125,0.81298828125
2021-09-24 22:47:49.746939,0.0341796875,0.56396484375,0.85498046875,33.4039306640625,-1.8292236328125,0.81298828125
2021-09-24 22:47:49.747059,0.033203125,0.56201171875,0.853515625,33.4039306640625,-1.8292236328125,0.81298828125
2021-09-24 22:47:49.747186,0.03369140625,0.5615234375,0.85498046875,33.4039306640625,-1.8292236328125,0.81298828125
2021-09-24 22:47:49.747305,0.03271484375,0.56298828125,0.85302734375,33.4039306640625,-1.8292236328125,0.81298828125
2021-09-24 22:47:49.747423,0.03271484375,0.5615234375,0.85205078125,33.4039306640625,-1.8292236328125,0.81298828125
2021-09-24 22:47:49.747541,0.0341796875,0.564453125,0.8525390625,33.4039306640625,-1.8292236328125,0.81298828125
2021-09-24 22:47:49.747661,0.03369140625,0.5625,0.8525390625,33.4039306640625,-1.8292236328125,0.81298828125
2021-09-24 22:47:49.747781,0.03173828125,0.5634765625,0.8544921875,33.4039306640625,-1.8292236328125,0.81298828125
2021-09-24 22:47:49.747907,0.0322265625,0.56396484375,0.8515625,33.4039306640625,-1.8292236328125,0.81298828125
2021-09-24 22:47:49.748024,0.033203125,0.5634765625,0.85400390625,33.4039306640625,-1.8292236328125,0.81298828125
2021-09-24 22:47:49.748144,0.0341796875,0.56298828125,0.8515625,33.409423828125,-1.8292236328125,0.81298828125
2021-09-24 22:47:49.748264,0.0322265625,0.5634765625,0.85595703125,33.4039306640625,-1.8292236328125,0.81298828125
2021-09-24 22:47:49.748382,0.033203125,0.5634765625,0.85400390625,33.4039306640625,-1.8292236328125,0.81298828125
2021-09-24 22:47:49.748505,0.0322265625,0.5625,0.85498046875,33.4039306640625,-1.8292236328125,0.81298828125
2021-09-24 22:47:49.748634,0.03369140625,0.56103515625,0.85546875,33.4039306640625,-1.834716796875,0.81298828125
2021-09-24 22:47:49.748767,0.03466796875,0.56298828125,0.85302734375,33.4039306640625,-1.834716796875,0.81298828125
2021-09-24 22:47:49.748863,0.033203125,0.5634765625,0.85400390625,33.4039306640625,-1.834716796875,0.81298828125
2021-09-24 22:47:49.748957,0.03076171875,0.5634765625,0.85498046875,33.4039306640625,-1.834716796875,0.81298828125
2021-09-24 22:47:49.749051,0.03173828125,0.5625,0.853515625,33.4039306640625,-1.8292236328125,0.81298828125
2021-09-24 22:47:49.749149,0.03173828125,0.56396484375,0.853515625,33.4039306640625,-1.8292236328125,0.81298828125
2021-09-24 22:47:49.749269,0.0322265625,0.56298828125,0.8544921875,33.4039306640625,-1.8292236328125,0.81298828125
2021-09-24 22:47:49.749370,0.0322265625,0.5634765625,0.85595703125,33.4039306640625,-1.8292236328125,0.81298828125
2021-09-24 22:47:49.749463,0.033203125,0.56298828125,0.8564453125,33.4039306640625,-1.8292236328125,0.81298828125
2021-09-24 22:47:49.749559,0.033203125,0.56298828125,0.85400390625,33.4039306640625,-1.8292236328125,0.81298828125
2021-09-24 22:47:49.749672,0.03271484375,0.5634765625,0.8544921875,33.4039306640625,-1.8292236328125,0.81298828125
2021-09-24 22:47:49.749768,0.03369140625,0.56396484375,0.853515625,33.4039306640625,-1.8292236328125,0.81298828125
2021-09-24 22:47:49.749871,0.03369140625,0.5634765625,0.8525390625,33.4039306640625,-1.8292236328125,0.81298828125
2021-09-24 22:47:49.749972,0.033203125,0.5634765625,0.85302734375,33.4039306640625,-1.834716796875,0.81298828125
2021-09-24 22:47:49.750055,0.03173828125,0.56396484375,0.853515625,33.4039306640625,-1.8292236328125,0.81298828125
2021-09-24 22:47:49.750136,0.03076171875,0.5634765625,0.8544921875,33.4039306640625,-1.8292236328125,0.81298828125
2021-09-24 22:47:49.750217,0.0302734375,0.56298828125,0.8564453125,33.4039306640625,-1.8292236328125,0.81298828125
2021-09-24 22:47:49.750296,0.03076171875,0.56201171875,0.85107421875,33.4039306640625,-1.8292236328125,0.81298828125
2021-09-24 22:47:49.750377,0.0322265625,0.5634765625,0.8525390625,33.4039306640625,-1.8292236328125,0.81298828125
2021-09-24 22:47:49.750456,0.033203125,0.5634765625,0.85205078125,33.4039306640625,-1.8292236328125,0.81298828125
2021-09-24 22:47:49.750536,0.0341796875,0.56396484375,0.8525390625,33.4039306640625,-1.8292236328125,0.81298828125
2021-09-24 22:47:49.750616,0.03271484375,0.56201171875,0.853515625,33.4039306640625,-1.8292236328125,0.81298828125
2021-09-24 22:47:49.750695,0.03271484375,0.56201171875,0.8525390625,33.4039306640625,-1.8292236328125,0.81298828125
2021-09-24 22:47:49.750774,0.033203125,0.56494140625,0.853515625,33.4039306640625,-1.8292236328125,0.81298828125
2021-09-24 22:47:49.750854,0.03369140625,0.564453125,0.8525390625,33.409423828125,-1.8292236328125,0.81298828125
2021-09-24 22:47:49.750940,0.033203125,0.5625,0.85400390625,33.409423828125,-1.8292236328125,0.81298828125
2021-09-24 22:47:49.751021,0.033203125,0.56201171875,0.85498046875,33.4039306640625,-1.8292236328125,0.81298828125
2021-09-24 22:47:49.751110,0.0341796875,0.56201171875,0.85302734375,33.4039306640625,-1.8292236328125,0.81298828125
2021-09-24 22:47:49.751197,0.0341796875,0.56201171875,0.85498046875,33.4039306640625,-1.834716796875,0.81298828125
2021-09-24 22:47:49.751287,0.033203125,0.5625,0.85595703125,33.4039306640625,-1.834716796875,0.81298828125
2021-09-24 22:47:49.751391,0.0322265625,0.56201171875,0.8515625,33.4039306640625,-1.834716796875,0.81298828125
2021-09-24 22:47:49.751491,0.033203125,0.5634765625,0.853515625,33.4039306640625,-1.834716796875,0.81298828125
2021-09-24 22:47:49.751601,0.0322265625,0.5625,0.8525390625,33.4039306640625,-1.834716796875,0.81298828125
2021-09-24 22:47:49.751704,0.033203125,0.56201171875,0.85400390625,33.4039306640625,-1.834716796875,0.81298828125
2021-09-24 22:47:49.751811,0.033203125,0.56298828125,0.853515625,33.4039306640625,-1.834716796875,0.81298828125
2021-09-24 22:47:49.751916,0.03369140625,0.56396484375,0.85400390625,33.4039306640625,-1.834716796875,0.81298828125
2021-09-24 22:47:49.752030,0.03564453125,0.56201171875,0.8525390625,33.4039306640625,-1.834716796875,0.81298828125
2021-09-24 22:47:49.752137,0.03271484375,0.560546875,0.85302734375,33.4039306640625,-1.834716796875,0.81298828125
2021-09-24 22:47:49.752237,0.03271484375,0.5625,0.85107421875,33.4039306640625,-1.834716796875,0.81298828125
2021-09-24 22:47:49.752340,0.03271484375,0.56396484375,0.85400390625,33.4039306640625,-1.834716796875,0.81298828125
2021-09-24 22:47:49.752439,0.03369140625,0.56201171875,0.85302734375,33.4039306640625,-1.834716796875,0.81298828125
2021-09-24 22:47:49.752547,0.03369140625,0.56201171875,0.85302734375,33.4039306640625,-1.834716796875,0.81298828125
2021-09-24 22:47:49.752663,0.03369140625,0.560546875,0.85498046875,33.4039306640625,-1.834716796875,0.81298828125
2021-09-24 22:47:49.752758,0.0322265625,0.56201171875,0.85498046875,33.3984375,-1.834716796875,0.81298828125
2021-09-24 22:47:49.752853,0.03173828125,0.5615234375,0.85400390625,33.3984375,-1.834716796875,0.81298828125
2021-09-24 22:47:49.752950,0.03271484375,0.5634765625,0.853515625,33.3984375,-1.834716796875,0.81298828125
2021-09-24 22:47:49.753039,0.03369140625,0.56298828125,0.85546875,33.3984375,-1.834716796875,0.81298828125
2021-09-24 22:47:49.753130,0.03369140625,0.5615234375,0.8544921875,33.3984375,-1.834716796875,0.81298828125
2021-09-24 22:47:49.753233,0.033203125,0.560546875,0.85498046875,33.3984375,-1.834716796875,0.81298828125
2021-09-24 22:47:49.753337,0.03173828125,0.56298828125,0.853515625,33.3984375,-1.834716796875,0.81298828125
2021-09-24 22:47:49.753429,0.033203125,0.5634765625,0.85302734375,33.3984375,-1.834716796875,0.81298828125
2021-09-24 22:47:49.753518,0.0322265625,0.5634765625,0.85595703125,33.3984375,-1.834716796875,0.81298828125
2021-09-24 22:47:49.753612,0.03173828125,0.56298828125,0.85498046875,33.3984375,-1.834716796875,0.81298828125
2021-09-24 22:47:49.753704,0.03173828125,0.56103515625,0.85498046875,33.3984375,-1.834716796875,0.81298828125
2021-09-24 22:47:49.753797,0.03271484375,0.5634765625,0.853515625,33.3984375,-1.834716796875,0.81298828125
2021-09-24 22:47:49.753908,0.03173828125,0.56396484375,0.85546875,33.3984375,-1.834716796875,0.81298828125
2021-09-24 22:47:49.754023,0.03271484375,0.56396484375,0.853515625,33.3984375,-1.834716796875,0.81298828125
2021-09-24 22:47:49.754113,0.03173828125,0.5625,0.85400390625,33.3984375,-1.834716796875,0.81298828125
2021-09-24 22:47:49.754202,0.02978515625,0.5634765625,0.8505859375,33.3984375,-1.8292236328125,0.81298828125
2021-09-24 22:47:49.754294,0.0322265625,0.56298828125,0.8515625,33.3984375,-1.8292236328125,0.81298828125
2021-09-24 22:47:49.754385,0.03271484375,0.56298828125,0.8525390625,33.3984375,-1.8292236328125,0.81298828125
2021-09-24 22:47:49.754478,0.0302734375,0.5654296875,0.8525390625,33.3984375,-1.8292236328125,0.81298828125
2021-09-24 22:47:49.754573,0.0302734375,0.56494140625,0.85400390625,33.4039306640625,-1.8292236328125,0.81298828125
2021-09-24 22:47:49.754666,0.033203125,0.56298828125,0.85400390625,33.4039306640625,-1.8292236328125,0.81298828125
2021-09-24 22:47:49.754759,0.03173828125,0.56298828125,0.853515625,33.4039306640625,-1.8292236328125,0.81298828125
2021-09-24 22:47:49.754854,0.03271484375,0.56201171875,0.8544921875,33.3984375,-1.8292236328125,0.81298828125
2021-09-24 22:47:49.754952,0.0322265625,0.56298828125,0.8544921875,33.3984375,-1.8292236328125,0.81298828125
2021-09-24 22:47:49.755052,0.03076171875,0.56298828125,0.85693359375,33.3984375,-1.8292236328125,0.81298828125
2021-09-24 22:47:49.755151,0.03125,0.5625,0.85400390625,33.3984375,-1.82373046875,0.81298828125
2021-09-24 22:47:49.755249,0.03125,0.5625,0.85498046875,33.3984375,-1.82373046875,0.81298828125
2021-09-24 22:47:49.755347,0.033203125,0.56396484375,0.853515625,33.3984375,-1.82373046875,0.81298828125
2021-09-24 22:47:49.755447,0.03369140625,0.5634765625,0.8515625,33.3984375,-1.82373046875,0.81298828125
2021-09-24 22:47:49.755545,0.03564453125,0.56103515625,0.8515625,33.3984375,-1.8292236328125,0.81298828125
2021-09-24 22:47:49.755645,0.033203125,0.560546875,0.85205078125,33.3984375,-1.8292236328125,0.81298828125
2021-09-24 22:47:49.755740,0.03125,0.5615234375,0.85400390625,33.3984375,-1.8292236328125,0.81298828125
2021-09-24 22:47:49.755839,0.03125,0.56396484375,0.8525390625,33.3984375,-1.8292236328125,0.81298828125
2021-09-24 22:47:49.755928,0.03271484375,0.56298828125,0.85107421875,33.3984375,-1.8292236328125,0.81298828125
2021-09-24 22:47:49.756016,0.033203125,0.56494140625,0.8525390625,33.3984375,-1.8292236328125,0.81298828125
2021-09-24 22:47:49.756105,0.0322265625,0.5634765625,0.853515625,33.4039306640625,-1.8292236328125,0.81298828125
2021-09-24 22:47:49.756194,0.03125,0.5625,0.85546875,33.3984375,-1.82373046875,0.81298828125
2021-09-24 22:47:49.756282,0.03173828125,0.56201171875,0.85546875,33.3984375,-1.82373046875,0.81298828125
2021-09-24 22:47:49.756369,0.03173828125,0.56103515625,0.8525390625,33.3984375,-1.82373046875,0.81298828125
2021-09-24 22:47:49.756457,0.033203125,0.56103515625,0.85400390625,33.3984375,-1.82373046875,0.81298828125
2021-09-24 22:47:49.756567,0.03369140625,0.56298828125,0.8525390625,33.3984375,-1.82373046875,0.81298828125
2021-09-24 22:47:49.756660,0.03076171875,0.5625,0.85302734375,33.3984375,-1.82373046875,0.81298828125
2021-09-24 22:47:49.756749,0.0322265625,0.56103515625,0.85546875,33.3984375,-1.82373046875,0.81298828125
2021-09-24 22:47:49.756837,0.03173828125,0.56103515625,0.85693359375,33.3929443359375,-1.82373046875,0.81298828125
2021-09-24 22:47:49.756926,0.03271484375,0.56201171875,0.857421875,33.3929443359375,-1.82373046875,0.81298828125
2021-09-24 22:47:49.757014,0.03173828125,0.5625,0.853515625,33.3929443359375,-1.82373046875,0.81298828125
2021-09-24 22:47:49.757103,0.03173828125,0.56201171875,0.849609375,33.3929443359375,-1.82373046875,0.81298828125
2021-09-24 22:47:49.757192,0.03271484375,0.5625,0.85205078125,33.3929443359375,-1.82373046875,0.81298828125
2021-09-24 22:47:49.757295,0.033203125,0.56298828125,0.85498046875,33.3929443359375,-1.82373046875,0.81298828125
2021-09-24 22:47:49.757384,0.0341796875,0.5634765625,0.85400390625,33.3929443359375,-1.82373046875,0.81298828125
2021-09-24 22:47:49.757474,0.033203125,0.56298828125,0.8525390625,33.3929443359375,-1.82373046875,0.81298828125
2021-09-24 22:47:49.757563,0.03369140625,0.56396484375,0.85546875,33.3929443359375,-1.82373046875,0.81298828125
2021-09-24 22:47:49.757651,0.03271484375,0.56396484375,0.8525390625,33.3984375,-1.82373046875,0.81298828125
2021-09-24 22:47:49.757761,0.03076171875,0.56591796875,0.85302734375,33.3984375,-1.82373046875,0.81298828125
2021-09-24 22:47:49.757869,0.0322265625,0.56298828125,0.8515625,33.3984375,-1.82373046875,0.81298828125
2021-09-24 22:47:49.757960,0.033203125,0.56201171875,0.8515625,33.3984375,-1.82373046875,0.81298828125
2021-09-24 22:47:49.758049,0.03271484375,0.56103515625,0.85400390625,33.3984375,-1.82373046875,0.81298828125
2021-09-24 22:47:49.758138,0.03369140625,0.5625,0.85498046875,33.3984375,-1.82373046875,0.81298828125
2021-09-24 22:47:49.758227,0.03125,0.5634765625,0.85546875,33.3984375,-1.82373046875,0.81298828125
2021-09-24 22:47:49.758315,0.0322265625,0.56396484375,0.85546875,33.3984375,-1.82373046875,0.81298828125
2021-09-24 22:47:49.758424,0.03271484375,0.5634765625,0.85400390625,33.3984375,-1.82373046875,0.81298828125
2021-09-24 22:47:49.758544,0.03369140625,0.56201171875,0.8505859375,33.3984375,-1.82373046875,0.81298828125
2021-09-24 22:47:49.758646,0.033203125,0.56298828125,0.85302734375,33.3984375,-1.82373046875,0.81298828125
2021-09-24 22:47:49.758736,0.033203125,0.56396484375,0.85400390625,33.3984375,-1.82373046875,0.81298828125
2021-09-24 22:47:49.758824,0.03271484375,0.564453125,0.85546875,33.3984375,-1.82373046875,0.81298828125
2021-09-24 22:47:49.758914,0.03125,0.56591796875,0.85302734375,33.3984375,-1.8182373046875,0.81298828125
2021-09-24 22:47:49.759004,0.033203125,0.5654296875,0.85546875,33.3984375,-1.8182373046875,0.81298828125
2021-09-24 22:47:49.759092,0.033203125,0.56298828125,0.8544921875,33.3984375,-1.8182373046875,0.81298828125
2021-09-24 22:47:49.759180,0.03076171875,0.56396484375,0.85205078125,33.4039306640625,-1.8182373046875,0.81298828125
2021-09-24 22:47:49.759270,0.03271484375,0.56298828125,0.85498046875,33.4039306640625,-1.82373046875,0.81298828125
2021-09-24 22:47:49.759360,0.033203125,0.56201171875,0.853515625,33.3984375,-1.82373046875,0.81298828125
2021-09-24 22:47:49.759449,0.03369140625,0.5634765625,0.85302734375,33.4039306640625,-1.82373046875,0.81298828125
2021-09-24 22:47:49.759539,0.03369140625,0.564453125,0.8525390625,33.4039306640625,-1.82373046875,0.81298828125
2021-09-24 22:47:49.759627,0.03271484375,0.56396484375,0.85302734375,33.4039306640625,-1.82373046875,0.81298828125
2021-09-24 22:47:49.759715,0.03271484375,0.56201171875,0.85400390625,33.4039306640625,-1.82373046875,0.81298828125
2021-09-24 22:47:49.759815,0.03271484375,0.5615234375,0.85400390625,33.4039306640625,-1.82373046875,0.81298828125
2021-09-24 22:47:49.759916,0.0302734375,0.56201171875,0.85009765625,33.4039306640625,-1.82373046875,0.81298828125
2021-09-24 22:47:49.760013,0.03125,0.56298828125,0.853515625,33.4039306640625,-1.82373046875,0.81298828125
2021-09-24 22:47:49.760112,0.03125,0.564453125,0.85205078125,33.4039306640625,-1.8182373046875,0.81298828125
2021-09-24 22:47:49.760206,0.0322265625,0.56396484375,0.85302734375,33.4039306640625,-1.8182373046875,0.81298828125
2021-09-24 22:47:49.760304,0.03369140625,0.564453125,0.853515625,33.4039306640625,-1.82373046875,0.81298828125
2021-09-24 22:47:49.760394,0.03369140625,0.56201171875,0.8505859375,33.4039306640625,-1.82373046875,0.81298828125
2021-09-24 22:47:49.760485,0.03271484375,0.5625,0.85498046875,33.4039306640625,-1.82373046875,0.81298828125
2021-09-24 22:47:49.760578,0.03173828125,0.5625,0.85302734375,33.4039306640625,-1.8182373046875,0.81298828125
2021-09-24 22:47:49.760669,0.03271484375,0.56298828125,0.85302734375,33.4039306640625,-1.82373046875,0.81298828125
2021-09-24 22:47:49.760758,0.033203125,0.564453125,0.85400390625,33.4039306640625,-1.82373046875,0.81298828125
2021-09-24 22:47:49.760847,0.03271484375,0.5615234375,0.85302734375,33.4039306640625,-1.8182373046875,0.81298828125
2021-09-24 22:47:49.760947,0.03369140625,0.56298828125,0.85107421875,33.4039306640625,-1.82373046875,0.81298828125
2021-09-24 22:47:49.761077,0.03173828125,0.56298828125,0.85302734375,33.4039306640625,-1.8182373046875,0.81298828125
2021-09-24 22:47:49.761202,0.0322265625,0.5634765625,0.85205078125,33.4039306640625,-1.8182373046875,0.81298828125
2021-09-24 22:47:49.761329,0.03271484375,0.5634765625,0.85302734375,33.409423828125,-1.8182373046875,0.81298828125
2021-09-24 22:47:49.761466,0.03173828125,0.56298828125,0.8564453125,33.4039306640625,-1.8182373046875,0.81298828125
2021-09-24 22:47:49.761596,0.033203125,0.56396484375,0.85400390625,33.4039306640625,-1.8182373046875,0.81298828125
2021-09-24 22:47:49.761756,0.033203125,0.56201171875,0.8525390625,33.4039306640625,-1.8182373046875,0.81298828125
2021-09-24 22:47:49.761893,0.03076171875,0.56298828125,0.8515625,33.409423828125,-1.8182373046875,0.81298828125
2021-09-24 22:47:49.762016,0.03125,0.5634765625,0.8525390625,33.409423828125,-1.8182373046875,0.81298828125
2021-09-24 22:47:49.762141,0.033203125,0.5634765625,0.85595703125,33.409423828125,-1.8182373046875,0.81298828125
2021-09-24 22:47:49.762244,0.03125,0.564453125,0.853515625,33.409423828125,-1.8182373046875,0.81298828125
2021-09-24 22:47:49.762340,0.03173828125,0.564453125,0.85595703125,33.409423828125,-1.8182373046875,0.81298828125
2021-09-24 22:47:49.762433,0.03076171875,0.56494140625,0.8525390625,33.409423828125,-1.8182373046875,0.81298828125
2021-09-24 22:47:49.762526,0.03125,0.56201171875,0.85205078125,33.409423828125,-1.8182373046875,0.81298828125
2021-09-24 22:47:49.762624,0.03076171875,0.5625,0.85400390625,33.409423828125,-1.812744140625,0.81298828125
2021-09-24 22:47:49.762723,0.03076171875,0.56396484375,0.85107421875,33.409423828125,-1.812744140625,0.81298828125
2021-09-24 22:47:49.762815,0.03125,0.5634765625,0.8525390625,33.409423828125,-1.812744140625,0.81298828125
2021-09-24 22:47:49.762908,0.0322265625,0.5634765625,0.853515625,33.409423828125,-1.812744140625,0.81298828125
2021-09-24 22:47:49.763019,0.0322265625,0.5654296875,0.8515625,33.409423828125,-1.812744140625,0.81298828125
2021-09-24 22:47:49.763113,0.03125,0.5634765625,0.8525390625,33.4149169921875,-1.812744140625,0.81298828125
2021-09-24 22:47:49.763207,0.03271484375,0.5625,0.8544921875,33.409423828125,-1.812744140625,0.81298828125
2021-09-24 22:47:49.763298,0.03125,0.5634765625,0.85595703125,33.409423828125,-1.812744140625,0.81298828125
2021-09-24 22:47:49.763390,0.0302734375,0.5634765625,0.853515625,33.409423828125,-1.812744140625,0.81298828125
2021-09-24 22:47:49.763500,0.03173828125,0.564453125,0.85302734375,33.409423828125,-1.812744140625,0.81298828125
2021-09-24 22:47:49.763636,0.03369140625,0.5625,0.85400390625,33.409423828125,-1.812744140625,0.81298828125
2021-09-24 22:47:49.763780,0.0341796875,0.5615234375,0.8515625,33.409423828125,-1.812744140625,0.81298828125
2021-09-24 22:47:49.763913,0.03125,0.5615234375,0.85009765625,33.409423828125,-1.812744140625,0.81298828125
2021-09-24 22:47:49.764041,0.033203125,0.560546875,0.85302734375,33.409423828125,-1.812744140625,0.81298828125
2021-09-24 22:47:49.764161,0.033203125,0.5595703125,0.85107421875,33.409423828125,-1.812744140625,0.81298828125
2021-09-24 22:47:49.764279,0.03173828125,0.56103515625,0.853515625,33.409423828125,-1.812744140625,0.81298828125
2021-09-24 22:47:49.764398,0.0322265625,0.56298828125,0.8544921875,33.409423828125,-1.812744140625,0.81298828125
2021-09-24 22:47:49.764518,0.03271484375,0.56494140625,0.85546875,33.409423828125,-1.8072509765625,0.81298828125
2021-09-24 22:47:49.764627,0.03173828125,0.56591796875,0.85302734375,33.409423828125,-1.8072509765625,0.81298828125
2021-09-24 22:47:49.764752,0.03271484375,0.5634765625,0.8525390625,33.409423828125,-1.8072509765625,0.81298828125
2021-09-24 22:47:49.764890,0.03076171875,0.56396484375,0.857421875,33.409423828125,-1.8072509765625,0.81298828125
2021-09-24 22:47:49.765036,0.0322265625,0.5625,0.853515625,33.409423828125,-1.8072509765625,0.81298828125
2021-09-24 22:47:49.765167,0.03369140625,0.56298828125,0.8544921875,33.409423828125,-1.8072509765625,0.81298828125
2021-09-24 22:47:49.765328,0.03271484375,0.56201171875,0.853515625,33.409423828125,-1.8072509765625,0.81298828125
2021-09-24 22:47:49.765459,0.03369140625,0.5634765625,0.85595703125,33.409423828125,-1.8072509765625,0.81298828125
2021-09-24 22:47:49.765569,0.03369140625,0.5625,0.85400390625,33.4039306640625,-1.8072509765625,0.81298828125
2021-09-24 22:47:49.765668,0.03369140625,0.56298828125,0.8544921875,33.4039306640625,-1.812744140625,0.81298828125
2021-09-24 22:47:49.765795,0.033203125,0.5625,0.85546875,33.4039306640625,-1.812744140625,0.81298828125
2021-09-24 22:47:49.765925,0.03271484375,0.56103515625,0.8525390625,33.4039306640625,-1.812744140625,0.81298828125
2021-09-24 22:47:49.766058,0.0322265625,0.5615234375,0.85498046875,33.4039306640625,-1.812744140625,0.81298828125
2021-09-24 22:47:49.766192,0.03515625,0.56298828125,0.85302734375,33.4039306640625,-1.812744140625,0.81298828125
2021-09-24 22:47:49.766320,0.03466796875,0.5654296875,0.85302734375,33.4039306640625,-1.812744140625,0.81298828125
2021-09-24 22:47:49.766427,0.0341796875,0.56640625,0.85400390625,33.4039306640625,-1.812744140625,0.81298828125
2021-09-24 22:47:49.766524,0.03515625,0.5634765625,0.85107421875,33.4039306640625,-1.812744140625,0.81298828125
2021-09-24 22:47:49.766633,0.03515625,0.56103515625,0.85546875,33.4039306640625,-1.8182373046875,0.81298828125
2021-09-24 22:47:49.766728,0.03271484375,0.56201171875,0.8525390625,33.4039306640625,-1.8182373046875,0.81298828125
2021-09-24 22:47:49.766824,0.03271484375,0.56298828125,0.84814453125,33.4039306640625,-1.8182373046875,0.81298828125
2021-09-24 22:47:49.766919,0.0322265625,0.56298828125,0.85498046875,33.4039306640625,-1.8182373046875,0.81298828125
2021-09-24 22:47:49.767014,0.03271484375,0.56396484375,0.8544921875,33.4039306640625,-1.812744140625,0.81298828125
2021-09-24 22:47:49.767132,0.03271484375,0.56298828125,0.85546875,33.3984375,-1.812744140625,0.81298828125
2021-09-24 22:47:49.767265,0.03271484375,0.560546875,0.8564453125,33.3984375,-1.8182373046875,0.81298828125
2021-09-24 22:47:49.767389,0.03271484375,0.56005859375,0.85546875,33.3984375,-1.8182373046875,0.81298828125
2021-09-24 22:47:49.767528,0.03173828125,0.560546875,0.85400390625,33.3984375,-1.8182373046875,0.81298828125
2021-09-24 22:47:49.767679,0.03271484375,0.5615234375,0.85498046875,33.3984375,-1.8182373046875,0.81298828125
2021-09-24 22:47:49.767806,0.03271484375,0.5625,0.85302734375,33.3929443359375,-1.812744140625,0.81298828125
2021-09-24 22:47:49.767933,0.03125,0.56103515625,0.8525390625,33.3929443359375,-1.812744140625,0.81298828125
2021-09-24 22:47:49.768059,0.03125,0.5625,0.85107421875,33.3929443359375,-1.8182373046875,0.81298828125
2021-09-24 22:47:49.768184,0.03125,0.56494140625,0.8525390625,33.3984375,-1.812744140625,0.81298828125
2021-09-24 22:47:49.768308,0.0322265625,0.56396484375,0.85693359375,33.3984375,-1.812744140625,0.81298828125
2021-09-24 22:47:49.768426,0.03076171875,0.56298828125,0.85302734375,33.3984375,-1.812744140625,0.81298828125
2021-09-24 22:47:49.768550,0.03173828125,0.56103515625,0.85302734375,33.3929443359375,-1.812744140625,0.81298828125
2021-09-24 22:47:49.768683,0.03173828125,0.56298828125,0.8525390625,33.3984375,-1.812744140625,0.81298828125
2021-09-24 22:47:49.768822,0.0322265625,0.5625,0.8525390625,33.3984375,-1.812744140625,0.81298828125
2021-09-24 22:47:49.768960,0.0341796875,0.56494140625,0.8525390625,33.3984375,-1.812744140625,0.81298828125
2021-09-24 22:47:49.769103,0.03564453125,0.564453125,0.8525390625,33.3984375,-1.8182373046875,0.81298828125
2021-09-24 22:47:49.769249,0.03466796875,0.5634765625,0.8525390625,33.3984375,-1.8182373046875,0.81298828125
2021-09-24 22:47:49.769388,0.0322265625,0.5625,0.8544921875,33.3984375,-1.8182373046875,0.81298828125
2021-09-24 22:47:49.769733,0.03125,0.564453125,0.85546875,33.3984375,-1.8182373046875,0.81298828125
2021-09-24 22:47:49.769899,0.0322265625,0.564453125,0.85595703125,33.3984375,-1.8182373046875,0.81298828125
2021-09-24 22:47:49.770057,0.03271484375,0.56298828125,0.85302734375,33.3984375,-1.8182373046875,0.81298828125
2021-09-24 22:47:49.770203,0.033203125,0.5634765625,0.8515625,33.3984375,-1.8182373046875,0.81298828125
2021-09-24 22:47:49.770356,0.03125,0.5615234375,0.85498046875,33.3984375,-1.8182373046875,0.81298828125
2021-09-24 22:47:49.770514,0.03466796875,0.5625,0.8515625,33.3984375,-1.8182373046875,0.81298828125
2021-09-24 22:47:49.770679,0.03466796875,0.56201171875,0.8505859375,33.3984375,-1.8182373046875,0.81298828125
2021-09-24 22:47:49.770808,0.03369140625,0.5625,0.8515625,33.3984375,-1.8182373046875,0.81298828125
2021-09-24 22:47:49.770936,0.03515625,0.5615234375,0.85302734375,33.3984375,-1.8182373046875,0.81298828125
2021-09-24 22:47:49.771066,0.033203125,0.5625,0.85400390625,33.3984375,-1.8182373046875,0.81298828125
2021-09-24 22:47:49.771204,0.03173828125,0.56298828125,0.85400390625,33.3984375,-1.8182373046875,0.81298828125
2021-09-24 22:47:49.771308,0.0322265625,0.56494140625,0.85009765625,33.3984375,-1.8182373046875,0.81298828125
2021-09-24 22:47:49.771407,0.0322265625,0.56591796875,0.85498046875,33.3984375,-1.812744140625,0.81298828125
2021-09-24 22:47:49.771512,0.033203125,0.56396484375,0.8525390625,33.4039306640625,-1.812744140625,0.81298828125
2021-09-24 22:47:49.771613,0.0302734375,0.56298828125,0.8544921875,33.4039306640625,-1.812744140625,0.81298828125
2021-09-24 22:47:49.771730,0.03173828125,0.56103515625,0.85546875,33.4039306640625,-1.812744140625,0.81298828125
2021-09-24 22:47:49.771833,0.03173828125,0.56005859375,0.85400390625,33.3984375,-1.8182373046875,0.81298828125
2021-09-24 22:47:49.771942,0.03125,0.56201171875,0.85888671875,33.3984375,-1.812744140625,0.81298828125
2021-09-24 22:47:49.772049,0.033203125,0.56201171875,0.8505859375,33.3929443359375,-1.812744140625,0.81298828125
2021-09-24 22:47:49.772172,0.03564453125,0.5654296875,0.8515625,33.3929443359375,-1.8072509765625,0.81298828125
2021-09-24 22:47:49.772280,0.03515625,0.568359375,0.85400390625,33.3929443359375,-1.8072509765625,0.81298828125
2021-09-24 22:47:49.772388,0.03466796875,0.564453125,0.84912109375,33.3984375,-1.8072509765625,0.81298828125
2021-09-24 22:47:49.772506,0.033203125,0.5615234375,0.853515625,33.3984375,-1.812744140625,0.81298828125
2021-09-24 22:47:49.772621,0.03173828125,0.556640625,0.8564453125,33.4039306640625,-1.8182373046875,0.81298828125
2021-09-24 22:47:49.772755,0.03173828125,0.55810546875,0.85205078125,33.3984375,-1.8182373046875,0.81298828125
2021-09-24 22:47:49.772864,0.03173828125,0.5634765625,0.85498046875,33.3984375,-1.8182373046875,0.81298828125
2021-09-24 22:47:49.772959,0.03125,0.56591796875,0.8564453125,33.3929443359375,-1.812744140625,0.81298828125
2021-09-24 22:47:49.773059,0.0322265625,0.5673828125,0.85498046875,33.3929443359375,-1.812744140625,0.81298828125
2021-09-24 22:47:49.773158,0.03369140625,0.5654296875,0.85546875,33.3929443359375,-1.812744140625,0.81298828125
2021-09-24 22:47:49.773279,0.033203125,0.5625,0.8544921875,33.3929443359375,-1.812744140625,0.81298828125
2021-09-24 22:47:49.773424,0.03271484375,0.56103515625,0.85498046875,33.3984375,-1.812744140625,0.81298828125
2021-09-24 22:47:49.773532,0.03466796875,0.560546875,0.85498046875,33.3929443359375,-1.812744140625,0.81298828125
2021-09-24 22:47:49.773634,0.0322265625,0.5634765625,0.85498046875,33.3929443359375,-1.812744140625,0.81298828125
2021-09-24 22:47:49.773733,0.03173828125,0.56494140625,0.853515625,33.3929443359375,-1.8072509765625,0.81298828125
2021-09-24 22:47:49.773832,0.03173828125,0.564453125,0.8525390625,33.3929443359375,-1.812744140625,0.81298828125
2021-09-24 22:47:49.773936,0.03271484375,0.564453125,0.85302734375,33.3984375,-1.812744140625,0.81298828125
2021-09-24 22:47:49.774027,0.03173828125,0.56201171875,0.85302734375,33.3984375,-1.812744140625,0.81298828125
2021-09-24 22:47:49.774118,0.0322265625,0.56298828125,0.8544921875,33.3929443359375,-1.812744140625,0.81298828125
2021-09-24 22:47:49.774209,0.03369140625,0.56298828125,0.8515625,33.3984375,-1.812744140625,0.81298828125
2021-09-24 22:47:49.774300,0.033203125,0.5625,0.853515625,33.3984375,-1.812744140625,0.81298828125
2021-09-24 22:47:49.774390,0.02978515625,0.5625,0.85302734375,33.3984375,-1.812744140625,0.81298828125
2021-09-24 22:47:49.774487,0.03125,0.56396484375,0.85302734375,33.3984375,-1.8072509765625,0.81298828125
2021-09-24 22:47:49.774585,0.03369140625,0.5625,0.8525390625,33.3984375,-1.812744140625,0.81298828125
2021-09-24 22:47:49.774710,0.0341796875,0.56396484375,0.8544921875,33.3984375,-1.812744140625,0.81298828125
2021-09-24 22:47:49.774871,0.03173828125,0.5625,0.8525390625,33.3984375,-1.812744140625,0.81298828125
2021-09-24 22:47:49.775038,0.0322265625,0.56201171875,0.853515625,33.3984375,-1.812744140625,0.81298828125
2021-09-24 22:47:49.775207,0.033203125,0.5625,0.853515625,33.3984375,-1.812744140625,0.81298828125
2021-09-24 22:47:49.775335,0.0322265625,0.5634765625,0.85400390625,33.3984375,-1.812744140625,0.81298828125
2021-09-24 22:47:49.775461,0.0302734375,0.56201171875,0.85107421875,33.3984375,-1.812744140625,0.81298828125
2021-09-24 22:47:49.775626,0.03173828125,0.5634765625,0.8544921875,33.3984375,-1.8072509765625,0.81298828125
2021-09-24 22:47:49.775792,0.03271484375,0.5634765625,0.85546875,33.3984375,-1.8072509765625,0.81298828125
2021-09-24 22:47:49.775937,0.03369140625,0.5615234375,0.85302734375,33.3984375,-1.8072509765625,0.81298828125
2021-09-24 22:47:49.776108,0.03125,0.56201171875,0.8544921875,33.3984375,-1.8072509765625,0.81298828125
2021-09-24 22:47:49.776260,0.03173828125,0.56103515625,0.85205078125,33.3984375,-1.8072509765625,0.81298828125
2021-09-24 22:47:49.776401,0.0322265625,0.56298828125,0.85205078125,33.3984375,-1.8072509765625,0.81298828125
2021-09-24 22:47:49.776547,0.03271484375,0.5634765625,0.8505859375,33.3984375,-1.8072509765625,0.81298828125
2021-09-24 22:47:49.776711,0.0322265625,0.5654296875,0.853515625,33.3984375,-1.8072509765625,0.81298828125
2021-09-24 22:47:49.776858,0.03125,0.5654296875,0.85205078125,33.4039306640625,-1.8072509765625,0.81298828125
2021-09-24 22:47:49.777025,0.03271484375,0.56396484375,0.8515625,33.4039306640625,-1.8072509765625,0.81298828125
2021-09-24 22:47:49.777198,0.0322265625,0.5634765625,0.8505859375,33.4039306640625,-1.8072509765625,0.81298828125
2021-09-24 22:47:49.777396,0.0322265625,0.5615234375,0.8515625,33.4039306640625,-1.8072509765625,0.81298828125
2021-09-24 22:47:49.777499,0.03173828125,0.56103515625,0.85205078125,33.4039306640625,-1.8072509765625,0.81298828125
2021-09-24 22:47:49.777599,0.0322265625,0.56201171875,0.85205078125,33.4039306640625,-1.8072509765625,0.81298828125
2021-09-24 22:47:49.777699,0.03173828125,0.56201171875,0.85400390625,33.4039306640625,-1.8072509765625,0.81298828125
2021-09-24 22:47:49.777797,0.0322265625,0.5625,0.85205078125,33.4039306640625,-1.8072509765625,0.81298828125
2021-09-24 22:47:49.777896,0.0322265625,0.56298828125,0.8544921875,33.4039306640625,-1.8072509765625,0.81298828125
2021-09-24 22:47:49.777993,0.03173828125,0.5634765625,0.85400390625,33.4039306640625,-1.8072509765625,0.81298828125
2021-09-24 22:47:49.778099,0.03125,0.5654296875,0.853515625,33.4039306640625,-1.8017578125,0.81298828125
2021-09-24 22:47:49.778208,0.0322265625,0.5634765625,0.8544921875,33.4039306640625,-1.8017578125,0.81298828125
2021-09-24 22:47:49.778307,0.0341796875,0.5634765625,0.85302734375,33.4039306640625,-1.8017578125,0.81298828125
2021-09-24 22:47:49.778405,0.03515625,0.560546875,0.85205078125,33.4039306640625,-1.8072509765625,0.81298828125
2021-09-24 22:47:49.778503,0.03125,0.56005859375,0.85302734375,33.4039306640625,-1.8072509765625,0.81298828125
2021-09-24 22:47:49.778601,0.03076171875,0.560546875,0.85595703125,33.4039306640625,-1.8072509765625,0.81298828125
2021-09-24 22:47:49.778700,0.0341796875,0.5615234375,0.8564453125,33.3984375,-1.8072509765625,0.81298828125
2021-09-24 22:47:49.778798,0.03466796875,0.564453125,0.857421875,33.3929443359375,-1.8017578125,0.81298828125
2021-09-24 22:47:49.778895,0.0341796875,0.564453125,0.85107421875,33.3984375,-1.8017578125,0.81298828125
2021-09-24 22:47:49.778991,0.03125,0.56396484375,0.85400390625,33.3984375,-1.8017578125,0.81298828125
2021-09-24 22:47:49.779088,0.02880859375,0.5615234375,0.85302734375,33.3984375,-1.8017578125,0.81298828125
2021-09-24 22:47:49.779183,0.0302734375,0.5595703125,0.85302734375,33.3984375,-1.8017578125,0.81298828125
2021-09-24 22:47:49.779279,0.03173828125,0.56005859375,0.853515625,33.3984375,-1.8017578125,0.81298828125
2021-09-24 22:47:49.779375,0.033203125,0.56298828125,0.8544921875,33.3929443359375,-1.8017578125,0.81298828125
2021-09-24 22:47:49.779491,0.033203125,0.5654296875,0.85400390625,33.3929443359375,-1.7962646484375,0.81298828125
2021-09-24 22:47:49.779582,0.0361328125,0.56591796875,0.85302734375,33.3929443359375,-1.7962646484375,0.81298828125
2021-09-24 22:47:49.779705,0.03369140625,0.56591796875,0.85498046875,33.3929443359375,-1.8017578125,0.81298828125
2021-09-24 22:47:49.779823,0.0341796875,0.5634765625,0.85498046875,33.3929443359375,-1.8072509765625,0.81298828125
2021-09-24 22:47:49.779950,0.03125,0.56201171875,0.85400390625,33.3984375,-1.8072509765625,0.81298828125
2021-09-24 22:47:49.780077,0.03271484375,0.5615234375,0.853515625,33.3984375,-1.8072509765625,0.81298828125
2021-09-24 22:47:49.780198,0.03271484375,0.56201171875,0.85205078125,33.3984375,-1.8072509765625,0.81298828125
2021-09-24 22:47:49.780320,0.03173828125,0.564453125,0.85302734375,33.3984375,-1.8072509765625,0.81298828125
2021-09-24 22:47:49.780444,0.03271484375,0.56396484375,0.853515625,33.3984375,-1.8017578125,0.81298828125
2021-09-24 22:47:49.780571,0.0341796875,0.56201171875,0.85302734375,33.3984375,-1.8017578125,0.81298828125
2021-09-24 22:47:49.780703,0.0341796875,0.5625,0.85400390625,33.3984375,-1.8017578125,0.81298828125
2021-09-24 22:47:49.780815,0.03369140625,0.56396484375,0.8505859375,33.3984375,-1.8072509765625,0.81298828125
2021-09-24 22:47:49.780926,0.03564453125,0.564453125,0.85009765625,33.3984375,-1.8072509765625,0.81298828125
2021-09-24 22:47:49.781039,0.033203125,0.56396484375,0.8525390625,33.4039306640625,-1.8072509765625,0.81298828125
2021-09-24 22:47:49.781151,0.0322265625,0.56494140625,0.8515625,33.4039306640625,-1.8072509765625,0.81298828125
2021-09-24 22:47:49.781277,0.0322265625,0.56298828125,0.853515625,33.4039306640625,-1.8072509765625,0.81298828125
2021-09-24 22:47:49.781418,0.03076171875,0.56201171875,0.8505859375,33.4039306640625,-1.8072509765625,0.81298828125
2021-09-24 22:47:49.781570,0.03125,0.56201171875,0.8544921875,33.4039306640625,-1.8017578125,0.81298828125
2021-09-24 22:47:49.781722,0.0322265625,0.5625,0.853515625,33.4039306640625,-1.8017578125,0.81298828125
2021-09-24 22:47:49.781844,0.03271484375,0.5634765625,0.85302734375,33.4039306640625,-1.8017578125,0.81298828125
2021-09-24 22:47:49.781964,0.03369140625,0.56298828125,0.85595703125,33.4039306640625,-1.8072509765625,0.81298828125
2021-09-24 22:47:49.782104,0.03173828125,0.56298828125,0.85498046875,33.4039306640625,-1.8072509765625,0.81298828125
2021-09-24 22:47:49.782240,0.03173828125,0.5615234375,0.853515625,33.3984375,-1.8072509765625,0.81298828125
2021-09-24 22:47:49.782355,0.03076171875,0.56298828125,0.8515625,33.4039306640625,-1.8017578125,0.81298828125
2021-09-24 22:47:49.782458,0.03125,0.5625,0.8525390625,33.4039306640625,-1.8017578125,0.81298828125
2021-09-24 22:47:49.782557,0.0341796875,0.5625,0.85302734375,33.4039306640625,-1.8017578125,0.81298828125
2021-09-24 22:47:49.782656,0.0341796875,0.5625,0.85546875,33.3984375,-1.8072509765625,0.81298828125
2021-09-24 22:47:49.782754,0.03173828125,0.56298828125,0.8525390625,33.4039306640625,-1.8072509765625,0.81298828125
2021-09-24 22:47:49.782853,0.03173828125,0.5615234375,0.8544921875,33.3984375,-1.8072509765625,0.81298828125
2021-09-24 22:47:49.782951,0.03369140625,0.56396484375,0.85400390625,33.3984375,-1.8072509765625,0.81298828125
2021-09-24 22:47:49.783049,0.03076171875,0.56396484375,0.85205078125,33.4039306640625,-1.8072509765625,0.81298828125
2021-09-24 22:47:49.783147,0.033203125,0.56298828125,0.8544921875,33.4039306640625,-1.8072509765625,0.81298828125
2021-09-24 22:47:49.783274,0.03271484375,0.5625,0.8544921875,33.3984375,-1.8072509765625,0.81298828125
2021-09-24 22:47:49.783375,0.0341796875,0.56298828125,0.8564453125,33.3984375,-1.8072509765625,0.81298828125
2021-09-24 22:47:49.783473,0.03173828125,0.5634765625,0.8544921875,33.3984375,-1.8072509765625,0.81298828125
2021-09-24 22:47:49.783570,0.03173828125,0.56201171875,0.85302734375,33.3984375,-1.8072509765625,0.81298828125
2021-09-24 22:47:49.783667,0.0361328125,0.56298828125,0.853515625,33.3984375,-1.8072509765625,0.81298828125
2021-09-24 22:47:49.783764,0.0341796875,0.5634765625,0.8515625,33.3984375,-1.8072509765625,0.81298828125
2021-09-24 22:47:49.783860,0.0322265625,0.56298828125,0.8515625,33.4039306640625,-1.8072509765625,0.81298828125
2021-09-24 22:47:49.783957,0.03369140625,0.5634765625,0.8505859375,33.4039306640625,-1.8072509765625,0.81298828125
2021-09-24 22:47:49.784055,0.03466796875,0.564453125,0.85302734375,33.4039306640625,-1.812744140625,0.81298828125
2021-09-24 22:47:49.784152,0.03369140625,0.5634765625,0.853515625,33.4039306640625,-1.812744140625,0.81298828125
2021-09-24 22:47:49.784249,0.03125,0.564453125,0.85498046875,33.4039306640625,-1.812744140625,0.81298828125
2021-09-24 22:47:49.784347,0.03271484375,0.56494140625,0.85205078125,33.4039306640625,-1.812744140625,0.81298828125
2021-09-24 22:47:49.784444,0.03076171875,0.5625,0.85546875,33.4039306640625,-1.812744140625,0.81298828125
2021-09-24 22:47:49.784567,0.03076171875,0.564453125,0.8515625,33.4039306640625,-1.8072509765625,0.81298828125
2021-09-24 22:47:49.784673,0.0341796875,0.5654296875,0.85107421875,33.409423828125,-1.812744140625,0.81298828125
2021-09-24 22:47:49.784783,0.03271484375,0.5634765625,0.85302734375,33.409423828125,-1.812744140625,0.81298828125
2021-09-24 22:47:49.784884,0.03369140625,0.56298828125,0.8505859375,33.409423828125,-1.812744140625,0.81298828125
2021-09-24 22:47:49.784975,0.0322265625,0.5625,0.853515625,33.409423828125,-1.812744140625,0.81298828125
2021-09-24 22:47:49.785065,0.0322265625,0.5615234375,0.85498046875,33.409423828125,-1.812744140625,0.81298828125
2021-09-24 22:47:49.785156,0.0322265625,0.5625,0.8515625,33.409423828125,-1.812744140625,0.81298828125
2021-09-24 22:47:49.785260,0.03271484375,0.56201171875,0.85205078125,33.409423828125,-1.812744140625,0.81298828125
2021-09-24 22:47:49.785353,0.0341796875,0.5634765625,0.8525390625,33.409423828125,-1.812744140625,0.81298828125
2021-09-24 22:47:49.785444,0.0341796875,0.56591796875,0.85107421875,33.409423828125,-1.812744140625,0.81298828125
2021-09-24 22:47:49.785535,0.033203125,0.564453125,0.85498046875,33.409423828125,-1.812744140625,0.81298828125
2021-09-24 22:47:49.785625,0.03271484375,0.5634765625,0.849609375,33.4149169921875,-1.812744140625,0.81298828125
2021-09-24 22:47:49.785737,0.033203125,0.5634765625,0.853515625,33.4149169921875,-1.812744140625,0.81298828125
2021-09-24 22:47:49.785848,0.0341796875,0.5634765625,0.85400390625,33.4149169921875,-1.812744140625,0.81298828125
2021-09-24 22:47:49.785980,0.0322265625,0.5625,0.85546875,33.4149169921875,-1.812744140625,0.81298828125
2021-09-24 22:47:49.786102,0.03271484375,0.5625,0.8564453125,33.409423828125,-1.812744140625,0.81298828125
2021-09-24 22:47:49.786216,0.029296875,0.56494140625,0.853515625,33.409423828125,-1.812744140625,0.81298828125
2021-09-24 22:47:49.786329,0.03076171875,0.56494140625,0.85546875,33.409423828125,-1.8072509765625,0.81298828125
2021-09-24 22:47:49.786441,0.03369140625,0.56201171875,0.857421875,33.409423828125,-1.812744140625,0.81298828125
2021-09-24 22:47:49.786553,0.033203125,0.56201171875,0.85498046875,33.409423828125,-1.812744140625,0.81298828125
2021-09-24 22:47:49.786668,0.03173828125,0.5615234375,0.857421875,33.409423828125,-1.812744140625,0.81298828125
2021-09-24 22:47:49.786782,0.03271484375,0.5625,0.8564453125,33.4039306640625,-1.812744140625,0.81298828125
2021-09-24 22:47:49.786902,0.03466796875,0.56396484375,0.85302734375,33.4039306640625,-1.812744140625,0.81298828125
2021-09-24 22:47:49.787015,0.0341796875,0.56494140625,0.8544921875,33.4039306640625,-1.812744140625,0.81298828125
2021-09-24 22:47:49.787127,0.033203125,0.564453125,0.853515625,33.4039306640625,-1.812744140625,0.81298828125
2021-09-24 22:47:49.787238,0.0322265625,0.5634765625,0.8525390625,33.409423828125,-1.812744140625,0.81298828125
2021-09-24 22:47:49.787352,0.03369140625,0.56298828125,0.85400390625,33.4039306640625,-1.812744140625,0.81298828125
2021-09-24 22:47:49.787467,0.02978515625,0.5615234375,0.8525390625,33.409423828125,-1.812744140625,0.81298828125
2021-09-24 22:47:49.787578,0.033203125,0.56201171875,0.8515625,33.409423828125,-1.812744140625,0.81298828125
2021-09-24 22:47:49.787692,0.03173828125,0.56298828125,0.853515625,33.409423828125,-1.812744140625,0.81298828125
2021-09-24 22:47:49.787830,0.0302734375,0.56298828125,0.853515625,33.409423828125,-1.812744140625,0.81298828125
2021-09-24 22:47:49.787950,0.03076171875,0.5654296875,0.8564453125,33.409423828125,-1.812744140625,0.81298828125
2021-09-24 22:47:49.788046,0.03369140625,0.56396484375,0.8505859375,33.409423828125,-1.812744140625,0.81298828125
2021-09-24 22:47:49.788139,0.033203125,0.56396484375,0.85009765625,33.409423828125,-1.812744140625,0.81298828125
2021-09-24 22:47:49.788231,0.03369140625,0.56298828125,0.8515625,33.409423828125,-1.812744140625,0.81298828125
2021-09-24 22:47:49.788323,0.03271484375,0.56298828125,0.8515625,33.4149169921875,-1.812744140625,0.81298828125
2021-09-24 22:47:49.788418,0.0341796875,0.56298828125,0.85302734375,33.4149169921875,-1.812744140625,0.81298828125
2021-09-24 22:47:49.788531,0.0302734375,0.5634765625,0.8544921875,33.4149169921875,-1.812744140625,0.81298828125
2021-09-24 22:47:49.788657,0.0302734375,0.5634765625,0.8544921875,33.4149169921875,-1.8182373046875,0.81298828125
2021-09-24 22:47:49.788795,0.0322265625,0.5625,0.85546875,33.409423828125,-1.8182373046875,0.81298828125
2021-09-24 22:47:49.788920,0.03125,0.56201171875,0.857421875,33.409423828125,-1.8182373046875,0.81298828125
2021-09-24 22:47:49.789054,0.0302734375,0.56396484375,0.85009765625,33.409423828125,-1.812744140625,0.81298828125
2021-09-24 22:47:49.789171,0.0341796875,0.56396484375,0.8544921875,33.409423828125,-1.812744140625,0.81298828125
2021-09-24 22:47:49.789293,0.03369140625,0.56396484375,0.8505859375,33.4149169921875,-1.812744140625,0.81298828125
2021-09-24 22:47:49.789405,0.033203125,0.56396484375,0.85205078125,33.4149169921875,-1.8072509765625,0.81298828125
2021-09-24 22:47:49.789504,0.037109375,0.564453125,0.85400390625,33.4149169921875,-1.8072509765625,0.81298828125
2021-09-24 22:47:49.789620,0.0361328125,0.56201171875,0.8544921875,33.4149169921875,-1.812744140625,0.81298828125
2021-09-24 22:47:49.789715,0.03369140625,0.56103515625,0.85400390625,33.4149169921875,-1.8182373046875,0.81298828125
2021-09-24 22:47:49.789810,0.03125,0.56103515625,0.8544921875,33.4149169921875,-1.8182373046875,0.81298828125
2021-09-24 22:47:49.789916,0.0302734375,0.5595703125,0.8525390625,33.4149169921875,-1.82373046875,0.81298828125
2021-09-24 22:47:49.790011,0.0302734375,0.56396484375,0.85498046875,33.409423828125,-1.8182373046875,0.81298828125
2021-09-24 22:47:49.790114,0.0302734375,0.564453125,0.85498046875,33.409423828125,-1.812744140625,0.81298828125
2021-09-24 22:47:49.790210,0.0322265625,0.5634765625,0.853515625,33.409423828125,-1.812744140625,0.81298828125
2021-09-24 22:47:49.790304,0.03271484375,0.5634765625,0.85546875,33.409423828125,-1.8072509765625,0.81298828125
2021-09-24 22:47:49.790399,0.03271484375,0.56201171875,0.8544921875,33.409423828125,-1.8072509765625,0.81298828125
2021-09-24 22:47:49.790493,0.03076171875,0.560546875,0.85498046875,33.4039306640625,-1.8072509765625,0.81298828125
2021-09-24 22:47:49.790605,0.03173828125,0.560546875,0.85546875,33.4039306640625,-1.8072509765625,0.81298828125
2021-09-24 22:47:49.790708,0.033203125,0.5625,0.853515625,33.4039306640625,-1.8072509765625,0.81298828125
2021-09-24 22:47:49.790816,0.03076171875,0.5625,0.85400390625,33.4039306640625,-1.8072509765625,0.81298828125
2021-09-24 22:47:49.790919,0.02978515625,0.56298828125,0.8544921875,33.4039306640625,-1.8072509765625,0.81298828125
2021-09-24 22:47:49.791030,0.033203125,0.56298828125,0.85205078125,33.4039306640625,-1.8072509765625,0.81298828125
2021-09-24 22:47:49.791169,0.0322265625,0.56396484375,0.8515625,33.4039306640625,-1.8017578125,0.81298828125
2021-09-24 22:47:49.791283,0.033203125,0.560546875,0.85400390625,33.4039306640625,-1.8017578125,0.81298828125
2021-09-24 22:47:49.791390,0.0322265625,0.560546875,0.85205078125,33.4039306640625,-1.8072509765625,0.81298828125
2021-09-24 22:47:49.791523,0.0341796875,0.56201171875,0.85205078125,33.4039306640625,-1.8072509765625,0.81298828125
2021-09-24 22:47:49.791624,0.0302734375,0.5625,0.849609375,33.4039306640625,-1.8072509765625,0.81298828125
2021-09-24 22:47:49.791719,0.0302734375,0.5634765625,0.8525390625,33.4039306640625,-1.8017578125,0.81298828125
2021-09-24 22:47:49.791814,0.0302734375,0.56494140625,0.85400390625,33.4039306640625,-1.8017578125,0.81298828125
2021-09-24 22:47:49.791929,0.02978515625,0.56396484375,0.8515625,33.4039306640625,-1.8017578125,0.81298828125
2021-09-24 22:47:49.792032,0.03271484375,0.5625,0.85302734375,33.4039306640625,-1.8017578125,0.81298828125
2021-09-24 22:47:49.792134,0.0322265625,0.5615234375,0.8544921875,33.4039306640625,-1.8017578125,0.81298828125
2021-09-24 22:47:49.792236,0.03173828125,0.5625,0.8525390625,33.4039306640625,-1.7962646484375,0.81298828125
2021-09-24 22:47:49.792338,0.03466796875,0.5634765625,0.85546875,33.4039306640625,-1.7962646484375,0.81298828125
2021-09-24 22:47:49.792501,0.03466796875,0.5625,0.85205078125,33.4039306640625,-1.7962646484375,0.81298828125
2021-09-24 22:47:49.792648,0.0322265625,0.56298828125,0.8544921875,33.4039306640625,-1.7962646484375,0.81298828125
2021-09-24 22:47:49.792797,0.03173828125,0.56396484375,0.85595703125,33.4039306640625,-1.7962646484375,0.81298828125
2021-09-24 22:47:49.792967,0.02978515625,0.5615234375,0.853515625,33.4039306640625,-1.8017578125,0.81298828125
2021-09-24 22:47:49.793138,0.03076171875,0.560546875,0.8564453125,33.3984375,-1.8017578125,0.81298828125
2021-09-24 22:47:49.793365,0.0322265625,0.56201171875,0.85205078125,33.3984375,-1.8017578125,0.81298828125
2021-09-24 22:47:49.793519,0.033203125,0.5625,0.85107421875,33.3984375,-1.7962646484375,0.81298828125
2021-09-24 22:47:49.793642,0.03271484375,0.56396484375,0.85400390625,33.3984375,-1.7962646484375,0.81298828125
2021-09-24 22:47:49.793745,0.0341796875,0.56396484375,0.85107421875,33.3984375,-1.7962646484375,0.81298828125
2021-09-24 22:47:49.793858,0.033203125,0.564453125,0.85400390625,33.3984375,-1.7962646484375,0.81298828125
2021-09-24 22:47:49.793989,0.03369140625,0.56298828125,0.853515625,33.3984375,-1.7962646484375,0.81298828125
2021-09-24 22:47:49.794121,0.03173828125,0.5615234375,0.85205078125,33.3984375,-1.7962646484375,0.81298828125
2021-09-24 22:47:49.794250,0.03271484375,0.5625,0.85693359375,33.3984375,-1.7962646484375,0.81298828125
2021-09-24 22:47:49.794355,0.03076171875,0.5634765625,0.85107421875,33.3984375,-1.8017578125,0.81298828125
2021-09-24 22:47:49.794464,0.0341796875,0.5615234375,0.85009765625,33.3984375,-1.8017578125,0.81298828125
2021-09-24 22:47:49.794565,0.033203125,0.5615234375,0.85498046875,33.3984375,-1.8017578125,0.81298828125
2021-09-24 22:47:49.794673,0.033203125,0.56298828125,0.8505859375,33.3984375,-1.8017578125,0.81298828125
2021-09-24 22:47:49.794776,0.03173828125,0.5634765625,0.85595703125,33.3984375,-1.8017578125,0.81298828125
2021-09-24 22:47:49.794887,0.03173828125,0.56298828125,0.85107421875,33.3984375,-1.8017578125,0.81298828125
2021-09-24 22:47:49.795010,0.03271484375,0.5634765625,0.85009765625,33.4039306640625,-1.8017578125,0.81298828125
2021-09-24 22:47:49.795107,0.03466796875,0.564453125,0.85302734375,33.4039306640625,-1.8017578125,0.81298828125
2021-09-24 22:47:49.795202,0.0341796875,0.56396484375,0.85107421875,33.4039306640625,-1.8072509765625,0.81298828125
2021-09-24 22:47:49.795307,0.03271484375,0.564453125,0.85498046875,33.4039306640625,-1.8072509765625,0.81298828125
2021-09-24 22:47:49.795419,0.03125,0.56298828125,0.85595703125,33.4039306640625,-1.8072509765625,0.81298828125
2021-09-24 22:47:49.795536,0.0322265625,0.5615234375,0.85205078125,33.4039306640625,-1.8072509765625,0.81298828125
2021-09-24 22:47:49.795652,0.03173828125,0.56298828125,0.8544921875,33.4039306640625,-1.8017578125,0.81298828125
2021-09-24 22:47:49.795761,0.03125,0.5615234375,0.8505859375,33.4039306640625,-1.8017578125,0.81298828125
2021-09-24 22:47:49.795856,0.03125,0.56005859375,0.853515625,33.4039306640625,-1.8017578125,0.81298828125
2021-09-24 22:47:49.795950,0.03466796875,0.5615234375,0.8525390625,33.4039306640625,-1.8017578125,0.81298828125
2021-09-24 22:47:49.796043,0.0322265625,0.5625,0.85205078125,33.4039306640625,-1.8017578125,0.81298828125
2021-09-24 22:47:49.796137,0.03125,0.56396484375,0.85498046875,33.4039306640625,-1.8017578125,0.81298828125
2021-09-24 22:47:49.796231,0.0341796875,0.56494140625,0.853515625,33.4039306640625,-1.8017578125,0.81298828125
2021-09-24 22:47:49.796324,0.033203125,0.5654296875,0.8505859375,33.4039306640625,-1.8017578125,0.81298828125
2021-09-24 22:47:49.796418,0.03076171875,0.5625,0.85595703125,33.4039306640625,-1.8017578125,0.81298828125
2021-09-24 22:47:49.796530,0.03173828125,0.56103515625,0.8525390625,33.4039306640625,-1.8017578125,0.81298828125
2021-09-24 22:47:49.796667,0.03515625,0.5634765625,0.85498046875,33.4039306640625,-1.8017578125,0.81298828125
2021-09-24 22:47:49.796809,0.03466796875,0.5634765625,0.85546875,33.4039306640625,-1.8017578125,0.81298828125
2021-09-24 22:47:49.796955,0.03369140625,0.56591796875,0.85107421875,33.4039306640625,-1.8072509765625,0.81298828125
2021-09-24 22:47:49.797093,0.033203125,0.5654296875,0.85400390625,33.4039306640625,-1.8072509765625,0.81298828125
2021-09-24 22:47:49.797244,0.03125,0.56201171875,0.85302734375,33.4039306640625,-1.8072509765625,0.81298828125
2021-09-24 22:47:49.797360,0.03125,0.5615234375,0.85107421875,33.4039306640625,-1.8072509765625,0.81298828125
2021-09-24 22:47:49.797471,0.0341796875,0.5634765625,0.853515625,33.4039306640625,-1.8072509765625,0.81298828125
2021-09-24 22:47:49.797568,0.033203125,0.56591796875,0.85205078125,33.409423828125,-1.8072509765625,0.81298828125
2021-09-24 22:47:49.797662,0.03271484375,0.564453125,0.85009765625,33.409423828125,-1.8072509765625,0.81298828125
2021-09-24 22:47:49.797757,0.0341796875,0.56298828125,0.85546875,33.409423828125,-1.8072509765625,0.81298828125
2021-09-24 22:47:49.797853,0.0341796875,0.5625,0.849609375,33.409423828125,-1.8072509765625,0.81298828125
2021-09-24 22:47:49.797948,0.0341796875,0.5634765625,0.8525390625,33.409423828125,-1.8072509765625,0.81298828125
2021-09-24 22:47:49.798043,0.03466796875,0.5615234375,0.85400390625,33.409423828125,-1.8072509765625,0.81298828125
2021-09-24 22:47:49.798138,0.0341796875,0.5634765625,0.85107421875,33.409423828125,-1.812744140625,0.81298828125
2021-09-24 22:47:49.798236,0.033203125,0.56396484375,0.85498046875,33.409423828125,-1.812744140625,0.81298828125
2021-09-24 22:47:49.798330,0.033203125,0.5634765625,0.853515625,33.409423828125,-1.812744140625,0.81298828125
2021-09-24 22:47:49.798432,0.0322265625,0.5625,0.85498046875,33.409423828125,-1.812744140625,0.81298828125
2021-09-24 22:47:49.798533,0.03125,0.56396484375,0.85595703125,33.409423828125,-1.812744140625,0.81298828125
2021-09-24 22:47:49.798662,0.029296875,0.56396484375,0.85595703125,33.409423828125,-1.812744140625,0.81298828125
2021-09-24 22:47:49.798767,0.0302734375,0.56591796875,0.85546875,33.409423828125,-1.8072509765625,0.81298828125
2021-09-24 22:47:49.798868,0.033203125,0.56494140625,0.85400390625,33.409423828125,-1.8072509765625,0.81298828125
2021-09-24 22:47:49.798967,0.03369140625,0.56640625,0.85400390625,33.4149169921875,-1.8072509765625,0.81298828125
2021-09-24 22:47:49.799067,0.03466796875,0.56396484375,0.85791015625,33.409423828125,-1.812744140625,0.81298828125
2021-09-24 22:47:49.799166,0.03173828125,0.56298828125,0.85791015625,33.409423828125,-1.812744140625,0.81298828125
2021-09-24 22:47:49.799265,0.0341796875,0.56103515625,0.85400390625,33.409423828125,-1.812744140625,0.81298828125
2021-09-24 22:47:49.799365,0.0341796875,0.5634765625,0.85498046875,33.409423828125,-1.812744140625,0.81298828125
