time,acc_x,acc_y,acc_z,roll,pitch,yaw
2021-09-22 20:50:04.714779,-0.09716796875,0.07568359375,0.97802734375,3.3013916015625,4.94384765625,-85.220947265625
2021-09-22 20:50:04.726046,-0.09375,0.068359375,0.98681640625,3.2794189453125,4.9493408203125,-85.2484130859375
2021-09-22 20:50:04.736039,-0.09423828125,0.06591796875,0.98388671875,3.2794189453125,4.932861328125,-85.264892578125
2021-09-22 20:50:04.746133,-0.0947265625,0.06494140625,0.98291015625,3.2904052734375,4.888916015625,-85.2813720703125
2021-09-22 20:50:04.756051,-0.0927734375,0.0654296875,0.98779296875,3.3233642578125,4.8175048828125,-85.2923583984375
2021-09-22 20:50:04.765822,-0.08935546875,0.0712890625,0.98681640625,3.3673095703125,4.72412109375,-85.2923583984375
2021-09-22 20:50:04.775874,-0.0927734375,0.0771484375,0.99072265625,3.4222412109375,4.603271484375,-85.2813720703125
2021-09-22 20:50:04.785908,-0.0908203125,0.08056640625,0.99609375,3.4881591796875,4.46044921875,-85.2703857421875
2021-09-22 20:50:04.795771,-0.09716796875,0.0849609375,1.00048828125,3.5595703125,4.3011474609375,-85.25390625
2021-09-22 20:50:04.805634,-0.09814453125,0.08837890625,1.00048828125,3.6309814453125,4.1253662109375,-85.2374267578125
2021-09-22 20:50:04.815716,-0.09619140625,0.0888671875,0.99755859375,3.6968994140625,3.944091796875,-85.2099609375
2021-09-22 20:50:04.825747,-0.0869140625,0.08740234375,0.9990234375,3.75732421875,3.7518310546875,-85.1824951171875
2021-09-22 20:50:04.835783,-0.08203125,0.087890625,0.9990234375,3.812255859375,3.5540771484375,-85.1495361328125
2021-09-22 20:50:04.845558,-0.0791015625,0.09130859375,1.0009765625,3.8616943359375,3.350830078125,-85.111083984375
2021-09-22 20:50:04.855588,-0.0771484375,0.0947265625,1.0009765625,3.900146484375,3.1475830078125,-85.067138671875
2021-09-22 20:50:04.865494,-0.0751953125,0.095703125,1.00634765625,3.9276123046875,2.9388427734375,-85.01220703125
2021-09-22 20:50:04.875690,-0.07373046875,0.0947265625,1.00439453125,3.9385986328125,2.7301025390625,-84.9517822265625
2021-09-22 20:50:04.885461,-0.068359375,0.08251953125,1.0078125,3.922119140625,2.5213623046875,-84.88037109375
2021-09-22 20:50:04.895523,-0.06201171875,0.0712890625,1.00390625,3.88916015625,2.3016357421875,-84.7979736328125
2021-09-22 20:50:04.905399,-0.05224609375,0.06396484375,1.00341796875,3.84521484375,2.08740234375,-84.70458984375
2021-09-22 20:50:04.915260,-0.048828125,0.0615234375,0.99560546875,3.80126953125,1.8731689453125,-84.5947265625
2021-09-22 20:50:04.925212,-0.04833984375,0.05615234375,0.99267578125,3.75732421875,1.6754150390625,-84.4793701171875
2021-09-22 20:50:04.935421,-0.0458984375,0.05859375,0.99267578125,3.7298583984375,1.4886474609375,-84.35302734375
2021-09-22 20:50:04.945275,-0.044921875,0.0576171875,0.9921875,3.7078857421875,1.318359375,-84.22119140625
2021-09-22 20:50:04.955168,-0.0419921875,0.0556640625,0.994140625,3.702392578125,1.1590576171875,-84.0838623046875
2021-09-22 20:50:04.965090,-0.03759765625,0.05322265625,0.998046875,3.702392578125,1.021728515625,-83.946533203125
2021-09-22 20:50:04.975157,-0.03369140625,0.0498046875,0.99365234375,3.71337890625,0.90087890625,-83.8092041015625
2021-09-22 20:50:04.985255,-0.03125,0.05224609375,0.99560546875,3.7298583984375,0.7965087890625,-83.671875
2021-09-22 20:50:04.995050,-0.025390625,0.05126953125,0.99267578125,3.7518310546875,0.7086181640625,-83.5400390625
2021-09-22 20:50:05.004941,-0.02294921875,0.05224609375,0.98876953125,3.779296875,0.6427001953125,-83.4136962890625
2021-09-22 20:50:05.015030,-0.021484375,0.05419921875,0.984375,3.8067626953125,0.59326171875,-83.2928466796875
2021-09-22 20:50:05.024963,-0.0185546875,0.05810546875,0.98291015625,3.8397216796875,0.5657958984375,-83.177490234375
2021-09-22 20:50:05.034924,-0.015625,0.06103515625,0.98193359375,3.8671875,0.5548095703125,-83.067626953125
2021-09-22 20:50:05.044823,-0.01220703125,0.06201171875,0.98583984375,3.8946533203125,0.560302734375,-82.9632568359375
2021-09-22 20:50:05.054921,-0.0087890625,0.06396484375,0.9814453125,3.9111328125,0.5877685546875,-82.869873046875
2021-09-22 20:50:05.064814,-0.0048828125,0.064453125,0.9833984375,3.922119140625,0.626220703125,-82.7764892578125
2021-09-22 20:50:05.074742,-0.0009765625,0.06396484375,0.9833984375,3.922119140625,0.6756591796875,-82.694091796875
2021-09-22 20:50:05.084929,-0.00146484375,0.0625,0.98193359375,3.9166259765625,0.7470703125,-82.6171875
2021-09-22 20:50:05.094782,-0.0029296875,0.0654296875,0.9794921875,3.9056396484375,0.8294677734375,-82.5457763671875
2021-09-22 20:50:05.104685,-0.00341796875,0.07373046875,0.9755859375,3.8946533203125,0.9228515625,-82.474365234375
2021-09-22 20:50:05.114571,-0.00390625,0.08154296875,0.9833984375,3.8726806640625,1.0272216796875,-82.41943359375
2021-09-22 20:50:05.124616,-0.0048828125,0.0888671875,0.98681640625,3.8507080078125,1.142578125,-82.364501953125
2021-09-22 20:50:05.134645,-0.0078125,0.08740234375,0.990234375,3.8067626953125,1.263427734375,-82.320556640625
2021-09-22 20:50:05.144531,-0.01025390625,0.07763671875,0.99609375,3.746337890625,1.395263671875,-82.28759765625
2021-09-22 20:50:05.154468,-0.0087890625,0.0673828125,0.998046875,3.66943359375,1.527099609375,-82.2601318359375
2021-09-22 20:50:05.164445,-0.005859375,0.06298828125,0.99951171875,3.5870361328125,1.6534423828125,-82.2381591796875
2021-09-22 20:50:05.174595,-0.00732421875,0.06103515625,1.00146484375,3.504638671875,1.7852783203125,-82.2216796875
2021-09-22 20:50:05.184945,-0.01171875,0.06640625,1.0068359375,3.416748046875,1.9171142578125,-82.2161865234375
2021-09-22 20:50:05.194367,-0.01806640625,0.06640625,1.00634765625,3.3233642578125,2.0489501953125,-82.210693359375
2021-09-22 20:50:05.204259,-0.0224609375,0.06103515625,1.00830078125,3.22998046875,2.1807861328125,-82.2161865234375
2021-09-22 20:50:05.214170,-0.02294921875,0.05908203125,1.00537109375,3.131103515625,2.3126220703125,-82.2271728515625
2021-09-22 20:50:05.224434,-0.0224609375,0.05712890625,1.00439453125,3.0377197265625,2.4334716796875,-82.2381591796875
2021-09-22 20:50:05.234246,-0.0205078125,0.0556640625,1.0078125,2.955322265625,2.548828125,-82.2601318359375
2021-09-22 20:50:05.244249,-0.02587890625,0.05322265625,1.01171875,2.8729248046875,2.65869140625,-82.276611328125
2021-09-22 20:50:05.254077,-0.029296875,0.05322265625,1.01513671875,2.801513671875,2.7630615234375,-82.3040771484375
2021-09-22 20:50:05.264238,-0.03173828125,0.05126953125,1.01708984375,2.735595703125,2.8619384765625,-82.3260498046875
2021-09-22 20:50:05.274214,-0.03173828125,0.05126953125,1.0224609375,2.6751708984375,2.955322265625,-82.353515625
2021-09-22 20:50:05.284056,-0.03173828125,0.05126953125,1.0224609375,2.6092529296875,3.0487060546875,-82.37548828125
2021-09-22 20:50:05.293933,-0.0341796875,0.04638671875,1.021484375,2.548828125,3.1365966796875,-82.3974609375
2021-09-22 20:50:05.303978,-0.0341796875,0.04248046875,1.0244140625,2.4774169921875,3.2135009765625,-82.41943359375
2021-09-22 20:50:05.313927,-0.03759765625,0.03955078125,1.02099609375,2.406005859375,3.2904052734375,-82.430419921875
2021-09-22 20:50:05.323967,-0.0380859375,0.041015625,1.01708984375,2.340087890625,3.3563232421875,-82.44140625
2021-09-22 20:50:05.333812,-0.0390625,0.037109375,1.015625,2.2686767578125,3.416748046875,-82.4468994140625
2021-09-22 20:50:05.343849,-0.041015625,0.03125,1.01318359375,2.197265625,3.4716796875,-82.44140625
2021-09-22 20:50:05.353779,-0.04638671875,0.03173828125,1.013671875,2.1258544921875,3.5211181640625,-82.430419921875
2021-09-22 20:50:05.363702,-0.0498046875,0.02880859375,1.01611328125,2.054443359375,3.570556640625,-82.41943359375
2021-09-22 20:50:05.373755,-0.05517578125,0.02490234375,1.015625,1.9775390625,3.6090087890625,-82.3974609375
2021-09-22 20:50:05.383773,-0.05908203125,0.0224609375,1.015625,1.900634765625,3.6419677734375,-82.3699951171875
2021-09-22 20:50:05.393662,-0.0615234375,0.0224609375,1.01416015625,1.8182373046875,3.66943359375,-82.3480224609375
2021-09-22 20:50:05.403593,-0.06396484375,0.02490234375,1.01611328125,1.7413330078125,3.6859130859375,-82.320556640625
2021-09-22 20:50:05.413466,-0.06494140625,0.02880859375,1.009765625,1.669921875,3.6968994140625,-82.2930908203125
2021-09-22 20:50:05.423743,-0.06494140625,0.029296875,1.00732421875,1.60400390625,3.702392578125,-82.265625
2021-09-22 20:50:05.433548,-0.060546875,0.02392578125,1.0078125,1.5435791015625,3.6968994140625,-82.24365234375
2021-09-22 20:50:05.443430,-0.06103515625,0.017578125,1.0087890625,1.494140625,3.680419921875,-82.2216796875
2021-09-22 20:50:05.453350,-0.06103515625,0.01806640625,1.00927734375,1.4501953125,3.658447265625,-82.19970703125
2021-09-22 20:50:05.463421,-0.0634765625,0.01806640625,1.01220703125,1.4117431640625,3.636474609375,-82.177734375
2021-09-22 20:50:05.473509,-0.06689453125,0.017578125,1.01416015625,1.38427734375,3.603515625,-82.15576171875
2021-09-22 20:50:05.483324,-0.0703125,0.0166015625,1.013671875,1.351318359375,3.5760498046875,-82.1337890625
2021-09-22 20:50:05.493196,-0.06982421875,0.01416015625,1.0166015625,1.3238525390625,3.53759765625,-82.1173095703125
2021-09-22 20:50:05.503344,-0.06982421875,0.01025390625,1.017578125,1.29638671875,3.504638671875,-82.1063232421875
2021-09-22 20:50:05.513274,-0.06982421875,0.00732421875,1.01904296875,1.263427734375,3.4661865234375,-82.0953369140625
2021-09-22 20:50:05.523350,-0.0703125,0.00634765625,1.02099609375,1.23046875,3.427734375,-82.0843505859375
2021-09-22 20:50:05.533163,-0.06591796875,0.00341796875,1.02001953125,1.1865234375,3.3837890625,-82.0733642578125
2021-09-22 20:50:05.543283,-0.06640625,0.0,1.02294921875,1.1370849609375,3.3453369140625,-82.06787109375
2021-09-22 20:50:05.552746,-0.064453125,-0.00048828125,1.02294921875,1.087646484375,3.306884765625,-82.056884765625
2021-09-22 20:50:05.562991,-0.06396484375,-0.0009765625,1.02197265625,1.03271484375,3.2684326171875,-82.0513916015625
2021-09-22 20:50:05.573089,-0.06298828125,-0.0009765625,1.02197265625,0.9832763671875,3.22998046875,-82.0404052734375
2021-09-22 20:50:05.582994,-0.064453125,0.00146484375,1.021484375,0.933837890625,3.197021484375,-82.034912109375
2021-09-22 20:50:05.592981,-0.06201171875,0.0029296875,1.01611328125,0.90087890625,3.1695556640625,-82.02392578125
2021-09-22 20:50:05.602878,-0.05859375,0.0068359375,1.0166015625,0.8734130859375,3.14208984375,-82.012939453125
2021-09-22 20:50:05.612792,-0.05419921875,0.0107421875,1.02001953125,0.8624267578125,3.1201171875,-82.001953125
2021-09-22 20:50:05.622884,-0.0517578125,0.0068359375,1.021484375,0.85693359375,3.09814453125,-81.97998046875
2021-09-22 20:50:05.632801,-0.05029296875,0.00146484375,1.01904296875,0.85693359375,3.0816650390625,-81.9580078125
2021-09-22 20:50:05.642731,-0.0478515625,0.00146484375,1.017578125,0.867919921875,3.065185546875,-81.9305419921875
2021-09-22 20:50:05.652915,-0.04443359375,0.005859375,1.01611328125,0.889892578125,3.05419921875,-81.8975830078125
2021-09-22 20:50:05.662767,-0.0458984375,0.0107421875,1.01513671875,0.933837890625,3.0487060546875,-81.8536376953125
2021-09-22 20:50:05.672633,-0.046875,0.01611328125,1.01318359375,0.98876953125,3.0487060546875,-81.8096923828125
2021-09-22 20:50:05.683217,-0.04736328125,0.02197265625,1.00830078125,1.0601806640625,3.05419921875,-81.7657470703125
2021-09-22 20:50:05.692453,-0.0478515625,0.0263671875,1.0068359375,1.1370849609375,3.0596923828125,-81.7108154296875
2021-09-22 20:50:05.702421,-0.04541015625,0.0244140625,1.00732421875,1.219482421875,3.076171875,-81.661376953125
2021-09-22 20:50:05.712558,-0.04248046875,0.0224609375,1.00146484375,1.3018798828125,3.087158203125,-81.6009521484375
2021-09-22 20:50:05.722410,-0.04248046875,0.02099609375,0.99951171875,1.3787841796875,3.109130859375,-81.54052734375
2021-09-22 20:50:05.732342,-0.041015625,0.02294921875,1.00146484375,1.4501953125,3.131103515625,-81.4801025390625
2021-09-22 20:50:05.742318,-0.04296875,0.02978515625,0.9990234375,1.51611328125,3.153076171875,-81.40869140625
2021-09-22 20:50:05.752324,-0.04638671875,0.03173828125,1.00146484375,1.5765380859375,3.1805419921875,-81.3372802734375
2021-09-22 20:50:05.762399,-0.05029296875,0.03466796875,1.00537109375,1.6204833984375,3.2080078125,-81.2603759765625
2021-09-22 20:50:05.772287,-0.0537109375,0.037109375,1.005859375,1.658935546875,3.2354736328125,-81.1834716796875
2021-09-22 20:50:05.782224,-0.0546875,0.0341796875,1.0068359375,1.680908203125,3.262939453125,-81.1065673828125
2021-09-22 20:50:05.792263,-0.0546875,0.0283203125,1.0048828125,1.6973876953125,3.3013916015625,-81.03515625
2021-09-22 20:50:05.802177,-0.05322265625,0.02197265625,1.0,1.702880859375,3.3453369140625,-80.96923828125
2021-09-22 20:50:05.812031,-0.05322265625,0.0166015625,1.001953125,1.7083740234375,3.3892822265625,-80.9088134765625
2021-09-22 20:50:05.821962,-0.05517578125,0.0146484375,1.0068359375,1.702880859375,3.4442138671875,-80.859375
2021-09-22 20:50:05.832335,-0.0556640625,0.017578125,1.00439453125,1.6973876953125,3.49365234375,-80.8209228515625
2021-09-22 20:50:05.842086,-0.05810546875,0.0185546875,1.001953125,1.6973876953125,3.548583984375,-80.79345703125
2021-09-22 20:50:05.852000,-0.06201171875,0.0224609375,0.99755859375,1.69189453125,3.5980224609375,-80.782470703125
2021-09-22 20:50:05.861926,-0.06494140625,0.0263671875,0.99560546875,1.69189453125,3.6474609375,-80.782470703125
2021-09-22 20:50:05.871793,-0.06689453125,0.0263671875,0.9921875,1.69189453125,3.69140625,-80.7989501953125
2021-09-22 20:50:05.881858,-0.06689453125,0.02880859375,0.98876953125,1.6973876953125,3.7353515625,-80.8319091796875
2021-09-22 20:50:05.891968,-0.06494140625,0.02880859375,0.9912109375,1.7083740234375,3.7738037109375,-80.8758544921875
2021-09-22 20:50:05.901838,-0.06494140625,0.02734375,0.98974609375,1.724853515625,3.8067626953125,-80.936279296875
2021-09-22 20:50:05.911666,-0.0634765625,0.02685546875,0.99169921875,1.7413330078125,3.834228515625,-81.0076904296875
2021-09-22 20:50:05.921590,-0.060546875,0.025390625,0.98828125,1.7523193359375,3.856201171875,-81.0845947265625
2021-09-22 20:50:05.931659,-0.06103515625,0.025390625,0.98876953125,1.7523193359375,3.8671875,-81.1669921875
2021-09-22 20:50:05.941544,-0.0625,0.02587890625,0.98828125,1.746826171875,3.8726806640625,-81.2493896484375
2021-09-22 20:50:05.951694,-0.064453125,0.02734375,0.98876953125,1.7303466796875,3.8726806640625,-81.3372802734375
2021-09-22 20:50:05.961447,-0.06689453125,0.02783203125,0.98974609375,1.702880859375,3.8616943359375,-81.419677734375
2021-09-22 20:50:05.971584,-0.06689453125,0.029296875,0.98876953125,1.6644287109375,3.8507080078125,-81.507568359375
2021-09-22 20:50:05.981475,-0.06884765625,0.02880859375,0.986328125,1.6259765625,3.8397216796875,-81.5899658203125
2021-09-22 20:50:05.991416,-0.072265625,0.03125,0.984375,1.5875244140625,3.8232421875,-81.67236328125
2021-09-22 20:50:06.001276,-0.0703125,0.029296875,0.98779296875,1.5435791015625,3.7957763671875,-81.749267578125
2021-09-22 20:50:06.011480,-0.0703125,0.0302734375,0.98681640625,1.5106201171875,3.7738037109375,-81.815185546875
2021-09-22 20:50:06.021316,-0.06982421875,0.033203125,0.98486328125,1.4886474609375,3.746337890625,-81.881103515625
2021-09-22 20:50:06.031220,-0.06494140625,0.02978515625,0.98681640625,1.4666748046875,3.71337890625,-81.9305419921875
2021-09-22 20:50:06.041198,-0.06884765625,0.0263671875,0.99169921875,1.4447021484375,3.680419921875,-81.9744873046875
2021-09-22 20:50:06.051080,-0.0703125,0.0263671875,0.9931640625,1.42822265625,3.6474609375,-82.0074462890625
2021-09-22 20:50:06.061294,-0.07275390625,0.0263671875,0.9931640625,1.417236328125,3.614501953125,-82.0294189453125
2021-09-22 20:50:06.071183,-0.07275390625,0.02734375,0.9931640625,1.40625,3.58154296875,-82.0458984375
2021-09-22 20:50:06.081144,-0.07080078125,0.0263671875,0.9931640625,1.4007568359375,3.5430908203125,-82.0458984375
2021-09-22 20:50:06.091039,-0.06982421875,0.02490234375,0.99755859375,1.4007568359375,3.4991455078125,-82.0404052734375
2021-09-22 20:50:06.101111,-0.07080078125,0.02294921875,0.99658203125,1.40625,3.4552001953125,-82.0294189453125
2021-09-22 20:50:06.110968,-0.07568359375,0.02197265625,1.0048828125,1.40625,3.40576171875,-82.0074462890625
2021-09-22 20:50:06.120987,-0.07763671875,0.01708984375,1.013671875,1.40625,3.3563232421875,-81.9854736328125
2021-09-22 20:50:06.130878,-0.07861328125,0.01806640625,1.0185546875,1.40625,3.3013916015625,-81.9635009765625
2021-09-22 20:50:06.140970,-0.080078125,0.0166015625,1.0234375,1.4007568359375,3.251953125,-81.947021484375
2021-09-22 20:50:06.150866,-0.080078125,0.01806640625,1.02734375,1.395263671875,3.2025146484375,-81.9305419921875
2021-09-22 20:50:06.160784,-0.0791015625,0.02197265625,1.02587890625,1.3787841796875,3.153076171875,-81.925048828125
2021-09-22 20:50:06.170872,-0.07763671875,0.0263671875,1.01904296875,1.3677978515625,3.09814453125,-81.925048828125
2021-09-22 20:50:06.181369,-0.0732421875,0.02734375,1.01708984375,1.3568115234375,3.043212890625,-81.93603515625
2021-09-22 20:50:06.190773,-0.0712890625,0.0322265625,1.01220703125,1.351318359375,2.98828125,-81.9525146484375
2021-09-22 20:50:06.200735,-0.06787109375,0.033203125,1.0078125,1.3458251953125,2.933349609375,-81.9744873046875
2021-09-22 20:50:06.210595,-0.06396484375,0.03369140625,1.0087890625,1.34033203125,2.8729248046875,-82.001953125
2021-09-22 20:50:06.220486,-0.060546875,0.0341796875,1.00830078125,1.34033203125,2.8125,-82.0294189453125
2021-09-22 20:50:06.230695,-0.06396484375,0.03271484375,1.00244140625,1.3458251953125,2.7520751953125,-82.0623779296875
2021-09-22 20:50:06.240622,-0.05712890625,0.03125,0.998046875,1.3568115234375,2.691650390625,-82.08984375
2021-09-22 20:50:06.250492,-0.05322265625,0.02783203125,0.99609375,1.3677978515625,2.625732421875,-82.11181640625
2021-09-22 20:50:06.260369,-0.05126953125,0.02783203125,0.998046875,1.38427734375,2.5653076171875,-82.1282958984375
2021-09-22 20:50:06.270526,-0.05126953125,0.03125,1.0029296875,1.395263671875,2.5048828125,-82.1337890625
2021-09-22 20:50:06.280420,-0.0498046875,0.0341796875,1.0087890625,1.4007568359375,2.4444580078125,-82.1282958984375
2021-09-22 20:50:06.290396,-0.04833984375,0.0302734375,1.00927734375,1.395263671875,2.3895263671875,-82.1063232421875
2021-09-22 20:50:06.300356,-0.04736328125,0.0244140625,1.00537109375,1.3787841796875,2.3345947265625,-82.06787109375
2021-09-22 20:50:06.310404,-0.04833984375,0.01806640625,1.00244140625,1.351318359375,2.28515625,-82.0184326171875
2021-09-22 20:50:06.320271,-0.04638671875,0.0185546875,1.001953125,1.3238525390625,2.2357177734375,-81.9525146484375
2021-09-22 20:50:06.330215,-0.0478515625,0.02099609375,0.99853515625,1.2908935546875,2.1917724609375,-81.881103515625
2021-09-22 20:50:06.340094,-0.04833984375,0.021484375,0.99658203125,1.263427734375,2.1533203125,-81.80419921875
2021-09-22 20:50:06.350048,-0.04931640625,0.0224609375,1.00244140625,1.2359619140625,2.120361328125,-81.71630859375
2021-09-22 20:50:06.360256,-0.04541015625,0.017578125,1.0048828125,1.20849609375,2.08740234375,-81.6229248046875
2021-09-22 20:50:06.370207,-0.0390625,0.013671875,1.0087890625,1.1865234375,2.054443359375,-81.529541015625
2021-09-22 20:50:06.380036,-0.03564453125,0.00732421875,1.00927734375,1.1590576171875,2.021484375,-81.4361572265625
2021-09-22 20:50:06.390085,-0.03369140625,0.01025390625,1.00830078125,1.142578125,1.9940185546875,-81.3427734375
2021-09-22 20:50:06.399929,-0.0322265625,0.0146484375,1.00537109375,1.1370849609375,1.9610595703125,-81.2493896484375
2021-09-22 20:50:06.409890,-0.03076171875,0.01953125,1.0,1.142578125,1.9281005859375,-81.1614990234375
2021-09-22 20:50:06.419848,-0.03076171875,0.02197265625,0.998046875,1.1590576171875,1.8951416015625,-81.0791015625
2021-09-22 20:50:06.430101,-0.0302734375,0.02490234375,0.9970703125,1.1865234375,1.86767578125,-80.9967041015625
2021-09-22 20:50:06.439902,-0.0302734375,0.0283203125,0.99365234375,1.219482421875,1.834716796875,-80.92529296875
2021-09-22 20:50:06.449750,-0.0302734375,0.0283203125,0.994140625,1.2579345703125,1.8017578125,-80.8648681640625
2021-09-22 20:50:06.459709,-0.029296875,0.02880859375,0.99072265625,1.29638671875,1.7742919921875,-80.8099365234375
2021-09-22 20:50:06.469773,-0.02392578125,0.02685546875,0.98974609375,1.3348388671875,1.746826171875,-80.760498046875
2021-09-22 20:50:06.479672,-0.01708984375,0.02587890625,0.98681640625,1.3677978515625,1.7138671875,-80.716552734375
2021-09-22 20:50:06.489790,-0.01611328125,0.0263671875,0.98828125,1.395263671875,1.680908203125,-80.6781005859375
2021-09-22 20:50:06.499583,-0.0166015625,0.02783203125,0.98974609375,1.40625,1.64794921875,-80.6396484375
2021-09-22 20:50:06.509635,-0.01806640625,0.02734375,0.98974609375,1.4007568359375,1.6204833984375,-80.606689453125
2021-09-22 20:50:06.519577,-0.017578125,0.02294921875,0.9951171875,1.3787841796875,1.5875244140625,-80.57373046875
2021-09-22 20:50:06.529491,-0.01416015625,0.02001953125,0.9931640625,1.329345703125,1.56005859375,-80.540771484375
2021-09-22 20:50:06.539409,-0.01025390625,0.01708984375,0.9931640625,1.2579345703125,1.527099609375,-80.5133056640625
2021-09-22 20:50:06.549669,-0.01025390625,0.01513671875,0.99267578125,1.175537109375,1.4996337890625,-80.48583984375
2021-09-22 20:50:06.559462,-0.0087890625,0.0166015625,0.9970703125,1.087646484375,1.47216796875,-80.4583740234375
2021-09-22 20:50:06.569324,-0.00732421875,0.01806640625,1.00146484375,0.9942626953125,1.4447021484375,-80.4364013671875
2021-09-22 20:50:06.579471,-0.01025390625,0.01416015625,1.00244140625,0.90087890625,1.4227294921875,-80.4144287109375
2021-09-22 20:50:06.589354,-0.0107421875,0.0029296875,1.0087890625,0.8074951171875,1.4007568359375,-80.3924560546875
2021-09-22 20:50:06.599270,-0.01220703125,-0.0009765625,1.00927734375,0.72509765625,1.3787841796875,-80.3704833984375
2021-09-22 20:50:06.609489,-0.01318359375,-0.00146484375,1.013671875,0.648193359375,1.3568115234375,-80.35400390625
2021-09-22 20:50:06.619303,-0.013671875,-0.001953125,1.01611328125,0.5877685546875,1.3348388671875,-80.33203125
2021-09-22 20:50:06.629198,-0.0146484375,-0.00146484375,1.01806640625,0.538330078125,1.3128662109375,-80.3155517578125
2021-09-22 20:50:06.639149,-0.01318359375,0.00146484375,1.01953125,0.5108642578125,1.2908935546875,-80.2935791015625
2021-09-22 20:50:06.649085,-0.0126953125,0.00146484375,1.015625,0.4998779296875,1.2689208984375,-80.277099609375
2021-09-22 20:50:06.659249,-0.01220703125,-0.00146484375,1.01904296875,0.50537109375,1.2469482421875,-80.255126953125
2021-09-22 20:50:06.669208,-0.009765625,-0.005859375,1.02734375,0.5218505859375,1.2249755859375,-80.233154296875
2021-09-22 20:50:06.679730,-0.0068359375,-0.00732421875,1.04052734375,0.538330078125,1.2030029296875,-80.2056884765625
2021-09-22 20:50:06.688961,-0.0078125,-0.00537109375,1.05078125,0.5548095703125,1.1810302734375,-80.17822265625
2021-09-22 20:50:06.698873,-0.01025390625,-0.005859375,1.04736328125,0.5767822265625,1.1590576171875,-80.145263671875
2021-09-22 20:50:06.709027,-0.00634765625,-0.00341796875,1.03857421875,0.6097412109375,1.1370849609375,-80.1123046875
2021-09-22 20:50:06.718854,-0.00537109375,0.0048828125,1.0322265625,0.6536865234375,1.109619140625,-80.0738525390625
2021-09-22 20:50:06.728949,-0.00439453125,0.01318359375,1.01708984375,0.72509765625,1.0821533203125,-80.0299072265625
2021-09-22 20:50:06.738821,-0.0029296875,0.0166015625,1.01513671875,0.8184814453125,1.0546875,-79.9859619140625
2021-09-22 20:50:06.748845,-0.00146484375,0.0185546875,1.01025390625,0.9283447265625,1.021728515625,-79.9310302734375
2021-09-22 20:50:06.758769,-0.00244140625,0.02197265625,1.0146484375,1.0491943359375,0.98876953125,-79.87060546875
2021-09-22 20:50:06.768684,-0.00341796875,0.0146484375,1.01611328125,1.1700439453125,0.955810546875,-79.8101806640625
2021-09-22 20:50:06.778631,-0.00537109375,0.00390625,1.015625,1.2908935546875,0.9228515625,-79.7442626953125
2021-09-22 20:50:06.788688,-0.005859375,0.00634765625,1.0224609375,1.4007568359375,0.8953857421875,-79.6783447265625
2021-09-22 20:50:06.798649,-0.00732421875,0.00634765625,1.01611328125,1.494140625,0.8624267578125,-79.6124267578125
2021-09-22 20:50:06.808577,-0.01025390625,0.00927734375,1.01025390625,1.58203125,0.8349609375,-79.5465087890625
2021-09-22 20:50:06.818455,-0.0126953125,0.0146484375,1.00390625,1.64794921875,0.8074951171875,-79.486083984375
2021-09-22 20:50:06.828395,-0.01513671875,0.017578125,1.00048828125,1.6973876953125,0.7855224609375,-79.4256591796875
2021-09-22 20:50:06.838347,-0.015625,0.0146484375,0.99609375,1.7193603515625,0.76904296875,-79.376220703125
2021-09-22 20:50:06.848341,-0.01416015625,0.00732421875,0.99072265625,1.724853515625,0.7525634765625,-79.332275390625
2021-09-22 20:50:06.858367,-0.015625,0.00634765625,0.98828125,1.7138671875,0.7415771484375,-79.2938232421875
2021-09-22 20:50:06.868258,-0.0166015625,0.01220703125,0.98583984375,1.69189453125,0.736083984375,-79.266357421875
2021-09-22 20:50:06.878246,-0.01806640625,0.01318359375,0.978515625,1.658935546875,0.736083984375,-79.244384765625
2021-09-22 20:50:06.888158,-0.013671875,0.0107421875,0.97802734375,1.6259765625,0.7415771484375,-79.2279052734375
2021-09-22 20:50:06.898312,-0.0146484375,0.005859375,0.978515625,1.5765380859375,0.7525634765625,-79.2279052734375
2021-09-22 20:50:06.908156,-0.01318359375,0.00244140625,0.98388671875,1.5216064453125,0.7635498046875,-79.2333984375
2021-09-22 20:50:06.918101,-0.01220703125,0.0,0.9921875,1.461181640625,0.780029296875,-79.244384765625
2021-09-22 20:50:06.927852,-0.0146484375,-0.0009765625,0.98974609375,1.3897705078125,0.802001953125,-79.2718505859375
2021-09-22 20:50:06.938080,-0.01220703125,0.0009765625,0.9931640625,1.307373046875,0.8349609375,-79.29931640625
2021-09-22 20:50:06.947969,-0.01318359375,0.00439453125,0.9931640625,1.23046875,0.867919921875,-79.34326171875
2021-09-22 20:50:06.957908,-0.01513671875,0.009765625,0.98583984375,1.1480712890625,0.911865234375,-79.3927001953125
2021-09-22 20:50:06.967873,-0.01513671875,0.01318359375,0.98779296875,1.065673828125,0.9613037109375,-79.4476318359375
2021-09-22 20:50:06.977950,-0.01025390625,0.0126953125,0.98583984375,0.98876953125,1.0052490234375,-79.5025634765625
2021-09-22 20:50:06.987861,-0.00830078125,0.0126953125,0.9912109375,0.9173583984375,1.0601806640625,-79.5684814453125
2021-09-22 20:50:06.997826,-0.0078125,0.00634765625,0.99609375,0.8514404296875,1.1151123046875,-79.6343994140625
2021-09-22 20:50:07.007766,-0.0068359375,0.00439453125,0.9921875,0.7855224609375,1.175537109375,-79.7003173828125
2021-09-22 20:50:07.017884,-0.0068359375,0.0078125,1.00244140625,0.72509765625,1.2469482421875,-79.7662353515625
2021-09-22 20:50:07.027793,-0.01123046875,0.01123046875,1.00537109375,0.670166015625,1.3238525390625,-79.8321533203125
2021-09-22 20:50:07.037648,-0.01708984375,0.01611328125,1.005859375,0.6207275390625,1.4117431640625,-79.903564453125
2021-09-22 20:50:07.047581,-0.02001953125,0.02490234375,1.00244140625,0.582275390625,1.51611328125,-79.9749755859375
2021-09-22 20:50:07.057682,-0.0166015625,0.02880859375,0.9873046875,0.5548095703125,1.6204833984375,-80.0518798828125
2021-09-22 20:50:07.067571,-0.0205078125,0.017578125,1.00830078125,0.52734375,1.73583984375,-80.13427734375
2021-09-22 20:50:07.077480,-0.02490234375,0.02587890625,0.994140625,0.516357421875,1.8621826171875,-80.211181640625
2021-09-22 20:50:07.087500,-0.0302734375,0.03466796875,1.01220703125,0.5218505859375,2.0050048828125,-80.2880859375
2021-09-22 20:50:07.097521,-0.0302734375,0.02734375,1.01171875,0.5218505859375,2.164306640625,-80.3594970703125
2021-09-22 20:50:07.107437,-0.03173828125,0.033203125,1.01708984375,0.5218505859375,2.3291015625,-80.4364013671875
2021-09-22 20:50:07.117374,-0.04638671875,0.02197265625,1.01708984375,0.50537109375,2.515869140625,-80.5078125
2021-09-22 20:50:07.127359,-0.04638671875,0.0107421875,1.01513671875,0.4833984375,2.713623046875,-80.5792236328125
2021-09-22 20:50:07.137423,-0.0439453125,0.00732421875,1.02587890625,0.4449462890625,2.92236328125,-80.6561279296875
2021-09-22 20:50:07.147365,-0.0498046875,0.013671875,1.015625,0.406494140625,3.131103515625,-80.738525390625
2021-09-22 20:50:07.157236,-0.05517578125,0.01806640625,1.025390625,0.362548828125,3.33984375,-80.8209228515625
2021-09-22 20:50:07.167220,-0.0634765625,0.0234375,1.02783203125,0.32958984375,3.548583984375,-80.9033203125
2021-09-22 20:50:07.177775,-0.06982421875,0.0234375,1.02294921875,0.3021240234375,3.7628173828125,-80.9967041015625
2021-09-22 20:50:07.187245,-0.0732421875,0.02099609375,1.02294921875,0.296630859375,3.97705078125,-81.0845947265625
2021-09-22 20:50:07.197249,-0.07861328125,0.0146484375,1.02392578125,0.3076171875,4.19677734375,-81.177978515625
2021-09-22 20:50:07.207067,-0.08251953125,0.0068359375,1.037109375,0.3515625,4.4219970703125,-81.2713623046875
2021-09-22 20:50:07.216924,-0.08935546875,-0.00048828125,1.03759765625,0.4229736328125,4.6417236328125,-81.36474609375
2021-09-22 20:50:07.227073,-0.08984375,-0.001953125,1.04296875,0.52734375,4.8504638671875,-81.45263671875
2021-09-22 20:50:07.236971,-0.0947265625,0.0009765625,1.04638671875,0.648193359375,5.0482177734375,-81.5460205078125
2021-09-22 20:50:07.246933,-0.0966796875,0.0126953125,1.04345703125,0.791015625,5.2349853515625,-81.62841796875
2021-09-22 20:50:07.256986,-0.09521484375,0.02197265625,1.0458984375,0.94482421875,5.3997802734375,-81.71630859375
2021-09-22 20:50:07.266762,-0.1044921875,0.02490234375,1.0390625,1.0986328125,5.55908203125,-81.793212890625
2021-09-22 20:50:07.276842,-0.1064453125,0.033203125,1.0322265625,1.2469482421875,5.7073974609375,-81.8701171875
2021-09-22 20:50:07.286751,-0.10498046875,0.03662109375,1.02734375,1.3787841796875,5.833740234375,-81.93603515625
2021-09-22 20:50:07.296656,-0.1103515625,0.0439453125,1.02490234375,1.505126953125,5.9490966796875,-81.9964599609375
2021-09-22 20:50:07.306564,-0.1064453125,0.0537109375,1.0224609375,1.60400390625,6.0479736328125,-82.0458984375
2021-09-22 20:50:07.316662,-0.103515625,0.06201171875,1.03515625,1.6864013671875,6.1138916015625,-82.0843505859375
2021-09-22 20:50:07.326640,-0.115234375,0.05517578125,0.9970703125,1.73583984375,6.1578369140625,-82.122802734375
2021-09-22 20:50:07.336529,-0.115234375,0.05859375,1.00439453125,1.768798828125,6.1798095703125,-82.1502685546875
2021-09-22 20:50:07.346456,-0.087890625,0.064453125,0.982421875,1.790771484375,6.163330078125,-82.1722412109375
2021-09-22 20:50:07.356598,-0.10302734375,0.05078125,0.97509765625,1.8072509765625,6.1358642578125,-82.188720703125
2021-09-22 20:50:07.366512,-0.1171875,0.04833984375,0.97900390625,1.8182373046875,6.1029052734375,-82.1942138671875
2021-09-22 20:50:07.376429,-0.1220703125,0.03662109375,0.9775390625,1.834716796875,6.053466796875,-82.1942138671875
2021-09-22 20:50:07.386289,-0.125,0.0341796875,0.984375,1.845703125,5.9820556640625,-82.1942138671875
2021-09-22 20:50:07.396213,-0.1181640625,0.03662109375,0.98486328125,1.8511962890625,5.888671875,-82.188720703125
2021-09-22 20:50:07.406336,-0.126953125,0.041015625,0.98681640625,1.856689453125,5.7733154296875,-82.1832275390625
2021-09-22 20:50:07.416240,-0.11962890625,0.03125,0.96630859375,1.8511962890625,5.657958984375,-82.1832275390625
2021-09-22 20:50:07.426394,-0.1328125,0.00732421875,1.0302734375,1.8182373046875,5.5096435546875,-82.1832275390625
2021-09-22 20:50:07.436320,-0.123046875,0.00146484375,0.96240234375,1.7852783203125,5.33935546875,-82.188720703125
2021-09-22 20:50:07.446222,-0.1064453125,-0.00390625,1.00146484375,1.7633056640625,5.1416015625,-82.188720703125
2021-09-22 20:50:07.456109,-0.10107421875,-0.02880859375,0.97509765625,1.746826171875,4.910888671875,-82.1942138671875
2021-09-22 20:50:07.466019,-0.09521484375,-0.033203125,0.98583984375,1.7413330078125,4.6636962890625,-82.19970703125
2021-09-22 20:50:07.475974,-0.1005859375,-0.02978515625,1.0126953125,1.768798828125,4.4110107421875,-82.210693359375
2021-09-22 20:50:07.486126,-0.0859375,-0.01025390625,0.99658203125,1.82373046875,4.1473388671875,-82.2216796875
2021-09-22 20:50:07.496010,-0.0849609375,0.01806640625,1.0,1.9061279296875,3.856201171875,-82.2381591796875
2021-09-22 20:50:07.505920,-0.0927734375,0.02294921875,0.9951171875,2.0050048828125,3.5650634765625,-82.2601318359375
2021-09-22 20:50:07.515795,-0.08642578125,0.02294921875,1.00830078125,2.098388671875,3.2684326171875,-82.298583984375
2021-09-22 20:50:07.525872,-0.08837890625,0.01318359375,1.01025390625,2.1917724609375,2.977294921875,-82.353515625
2021-09-22 20:50:07.535794,-0.06298828125,0.01123046875,1.0107421875,2.274169921875,2.669677734375,-82.4249267578125
2021-09-22 20:50:07.545820,-0.04931640625,0.0234375,1.0166015625,2.3565673828125,2.3565673828125,-82.5018310546875
2021-09-22 20:50:07.555656,-0.0341796875,0.04150390625,1.0234375,2.43896484375,2.0489501953125,-82.5897216796875
2021-09-22 20:50:07.565778,-0.0283203125,0.056640625,1.02880859375,2.5103759765625,1.73583984375,-82.672119140625
2021-09-22 20:50:07.575702,-0.02783203125,0.0654296875,1.02734375,2.559814453125,1.4337158203125,-82.7545166015625
2021-09-22 20:50:07.585600,-0.01708984375,0.07568359375,1.0322265625,2.5762939453125,1.1370849609375,-82.8314208984375
2021-09-22 20:50:07.595640,-0.00439453125,0.08056640625,1.0283203125,2.5653076171875,0.845947265625,-82.891845703125
2021-09-22 20:50:07.605717,0.00048828125,0.0693359375,1.02001953125,2.5213623046875,0.5657958984375,-82.935791015625
2021-09-22 20:50:07.615567,0.00439453125,0.05810546875,1.01904296875,2.4334716796875,0.3131103515625,-82.9632568359375
2021-09-22 20:50:07.625501,0.0068359375,0.05126953125,1.02783203125,2.3236083984375,0.076904296875,-82.96875
2021-09-22 20:50:07.635557,0.00830078125,0.048828125,1.03857421875,2.186279296875,-0.1318359375,-82.957763671875
2021-09-22 20:50:07.645437,0.00927734375,0.052734375,1.037109375,2.04345703125,-0.3131103515625,-82.935791015625
2021-09-22 20:50:07.655576,0.00830078125,0.06103515625,1.0380859375,1.8951416015625,-0.46142578125,-82.9083251953125
2021-09-22 20:50:07.665340,0.0107421875,0.0703125,1.02685546875,1.7633056640625,-0.5767822265625,-82.8753662109375
2021-09-22 20:50:07.675959,0.0,0.07421875,1.01318359375,1.658935546875,-0.6536865234375,-82.847900390625
2021-09-22 20:50:07.684488,-0.0068359375,0.06640625,1.00341796875,1.5875244140625,-0.6976318359375,-82.825927734375
2021-09-22 20:50:07.695293,0.00146484375,0.056640625,0.99951171875,1.549072265625,-0.714111328125,-82.81494140625
2021-09-22 20:50:07.705271,0.00244140625,0.04541015625,1.005859375,1.549072265625,-0.703125,-82.8094482421875
2021-09-22 20:50:07.715253,0.01171875,0.0390625,1.01904296875,1.5875244140625,-0.6756591796875,-82.8094482421875
2021-09-22 20:50:07.725247,0.0087890625,0.0361328125,1.02490234375,1.64794921875,-0.615234375,-82.8204345703125
2021-09-22 20:50:07.735169,0.0048828125,0.03515625,1.03466796875,1.73583984375,-0.5328369140625,-82.8369140625
2021-09-22 20:50:07.745071,0.00634765625,0.03857421875,1.0361328125,1.8292236328125,-0.428466796875,-82.85888671875
2021-09-22 20:50:07.754990,-0.00341796875,0.04248046875,1.029296875,1.9281005859375,-0.3021240234375,-82.8863525390625
2021-09-22 20:50:07.765054,-0.0087890625,0.04931640625,1.02734375,2.0269775390625,-0.15380859375,-82.9193115234375
2021-09-22 20:50:07.775193,-0.0126953125,0.05810546875,1.01953125,2.13134765625,0.0054931640625,-82.9632568359375
2021-09-22 20:50:07.784933,-0.01708984375,0.06103515625,1.01220703125,2.2247314453125,0.17578125,-83.0072021484375
2021-09-22 20:50:07.794507,-0.017578125,0.0595703125,1.00439453125,2.3126220703125,0.3570556640625,-83.0621337890625
2021-09-22 20:50:07.804932,-0.02197265625,0.056640625,0.99951171875,2.39501953125,0.54931640625,-83.12255859375
2021-09-22 20:50:07.814887,-0.01953125,0.05419921875,0.99755859375,2.471923828125,0.7415771484375,-83.1884765625
2021-09-22 20:50:07.824888,-0.0244140625,0.0537109375,0.98974609375,2.5433349609375,0.9393310546875,-83.25439453125
2021-09-22 20:50:07.834841,-0.02587890625,0.0498046875,0.998046875,2.5982666015625,1.131591796875,-83.3258056640625
2021-09-22 20:50:07.844684,-0.02783203125,0.04345703125,0.9990234375,2.63671875,1.3238525390625,-83.397216796875
2021-09-22 20:50:07.854743,-0.0322265625,0.041015625,1.00244140625,2.6531982421875,1.51611328125,-83.4686279296875
2021-09-22 20:50:07.864655,-0.03662109375,0.03759765625,1.00048828125,2.647705078125,1.702880859375,-83.5345458984375
2021-09-22 20:50:07.874584,-0.04052734375,0.03662109375,0.9970703125,2.6202392578125,1.8841552734375,-83.60595703125
2021-09-22 20:50:07.884549,-0.04541015625,0.03466796875,0.99658203125,2.5653076171875,2.054443359375,-83.671875
2021-09-22 20:50:07.894598,-0.0419921875,0.0341796875,0.99267578125,2.4993896484375,2.2137451171875,-83.73779296875
2021-09-22 20:50:07.904549,-0.04296875,0.0283203125,0.98974609375,2.4169921875,2.362060546875,-83.7982177734375
2021-09-22 20:50:07.914451,-0.04541015625,0.0263671875,0.9892578125,2.3236083984375,2.493896484375,-83.8531494140625
2021-09-22 20:50:07.924354,-0.046875,0.02294921875,0.9873046875,2.230224609375,2.6092529296875,-83.9080810546875
2021-09-22 20:50:07.934351,-0.04736328125,0.02099609375,0.986328125,2.13134765625,2.7081298828125,-83.95751953125
2021-09-22 20:50:07.944416,-0.04833984375,0.02783203125,0.982421875,2.0489501953125,2.79052734375,-84.00146484375
2021-09-22 20:50:07.954331,-0.0498046875,0.029296875,0.984375,1.9720458984375,2.8564453125,-84.04541015625
2021-09-22 20:50:07.964221,-0.0478515625,0.0302734375,0.98291015625,1.900634765625,2.9058837890625,-84.078369140625
2021-09-22 20:50:07.974319,-0.04931640625,0.0283203125,0.98486328125,1.845703125,2.933349609375,-84.1058349609375
2021-09-22 20:50:07.984244,-0.04931640625,0.02392578125,0.99072265625,1.7962646484375,2.933349609375,-84.1278076171875
2021-09-22 20:50:07.994103,-0.05078125,0.02392578125,0.99072265625,1.7633056640625,2.9168701171875,-84.144287109375
2021-09-22 20:50:08.004178,-0.0498046875,0.025390625,0.99365234375,1.7413330078125,2.87841796875,-84.1607666015625
2021-09-22 20:50:08.014051,-0.048828125,0.02587890625,0.99462890625,1.724853515625,2.8179931640625,-84.166259765625
2021-09-22 20:50:08.024079,-0.044921875,0.0263671875,1.0009765625,1.7138671875,2.735595703125,-84.1717529296875
2021-09-22 20:50:08.034006,-0.04150390625,0.02099609375,1.00634765625,1.6973876953125,2.6312255859375,-84.166259765625
2021-09-22 20:50:08.043973,-0.041015625,0.02587890625,1.01171875,1.669921875,2.5103759765625,-84.1607666015625
2021-09-22 20:50:08.054057,-0.0380859375,0.0390625,1.01171875,1.64794921875,2.3675537109375,-84.1552734375
2021-09-22 20:50:08.064054,-0.033203125,0.025390625,1.015625,1.614990234375,2.208251953125,-84.144287109375
2021-09-22 20:50:08.073872,-0.03076171875,0.01904296875,1.02099609375,1.571044921875,2.032470703125,-84.1278076171875
2021-09-22 20:50:08.083948,-0.02490234375,0.01806640625,1.021484375,1.5325927734375,1.8402099609375,-84.1168212890625
2021-09-22 20:50:08.093878,-0.02294921875,0.021484375,1.02197265625,1.4996337890625,1.64794921875,-84.1058349609375
2021-09-22 20:50:08.103741,-0.0185546875,0.0302734375,1.02099609375,1.4776611328125,1.4447021484375,-84.0948486328125
2021-09-22 20:50:08.113670,-0.01708984375,0.0380859375,1.025390625,1.4666748046875,1.241455078125,-84.078369140625
2021-09-22 20:50:08.123886,-0.0146484375,0.04248046875,1.02392578125,1.4666748046875,1.0382080078125,-84.056396484375
2021-09-22 20:50:08.133718,-0.0078125,0.041015625,1.02490234375,1.4666748046875,0.8404541015625,-84.034423828125
2021-09-22 20:50:08.143640,-0.00244140625,0.03955078125,1.0234375,1.461181640625,0.648193359375,-84.00146484375
2021-09-22 20:50:08.153554,0.0029296875,0.04345703125,1.0263671875,1.461181640625,0.472412109375,-83.9630126953125
2021-09-22 20:50:08.163687,0.00439453125,0.04833984375,1.0302734375,1.461181640625,0.3076171875,-83.91357421875
2021-09-22 20:50:08.174111,0.00439453125,0.048828125,1.02490234375,1.461181640625,0.164794921875,-83.858642578125
2021-09-22 20:50:08.183583,0.0068359375,0.04931640625,1.0234375,1.4556884765625,0.0384521484375,-83.792724609375
2021-09-22 20:50:08.193443,0.0048828125,0.04541015625,1.01953125,1.4501953125,-0.0604248046875,-83.726806640625
2021-09-22 20:50:08.203335,0.00732421875,0.04248046875,1.017578125,1.4501953125,-0.142822265625,-83.64990234375
2021-09-22 20:50:08.213404,0.00634765625,0.0400390625,1.01171875,1.4556884765625,-0.2032470703125,-83.5784912109375
2021-09-22 20:50:08.223305,0.00439453125,0.041015625,1.01220703125,1.47216796875,-0.2362060546875,-83.5015869140625
2021-09-22 20:50:08.233238,0.001953125,0.04052734375,1.01220703125,1.4996337890625,-0.24169921875,-83.43017578125
2021-09-22 20:50:08.243448,0.00244140625,0.0419921875,1.00927734375,1.5325927734375,-0.2197265625,-83.3642578125
2021-09-22 20:50:08.253282,0.0,0.03662109375,1.01171875,1.5765380859375,-0.17578125,-83.29833984375
2021-09-22 20:50:08.262530,-0.0009765625,0.037109375,1.01611328125,1.6204833984375,-0.1043701171875,-83.2489013671875
2021-09-22 20:50:08.273179,-0.00146484375,0.03564453125,1.01318359375,1.669921875,-0.010986328125,-83.199462890625
2021-09-22 20:50:08.283240,-0.00341796875,0.0322265625,1.005859375,1.7303466796875,0.1043701171875,-83.16650390625
2021-09-22 20:50:08.292859,-0.0009765625,0.0283203125,1.0029296875,1.790771484375,0.2362060546875,-83.1390380859375
2021-09-22 20:50:08.303114,-0.00390625,0.0263671875,1.00390625,1.856689453125,0.3900146484375,-83.1170654296875
2021-09-22 20:50:08.312979,-0.0048828125,0.029296875,1.00341796875,1.93359375,0.5548095703125,-83.1060791015625
2021-09-22 20:50:08.323107,-0.00732421875,0.03759765625,1.00048828125,2.0159912109375,0.7305908203125,-83.1005859375
2021-09-22 20:50:08.332996,-0.01171875,0.04150390625,1.00048828125,2.098388671875,0.9228515625,-83.1060791015625
2021-09-22 20:50:08.342930,-0.01513671875,0.04345703125,0.99853515625,2.1807861328125,1.12060546875,-83.111572265625
2021-09-22 20:50:08.353018,-0.0185546875,0.04345703125,0.99755859375,2.2576904296875,1.3238525390625,-83.1280517578125
2021-09-22 20:50:08.362848,-0.01904296875,0.03857421875,0.99609375,2.3291015625,1.527099609375,-83.1500244140625
2021-09-22 20:50:08.372846,-0.02197265625,0.0380859375,0.99853515625,2.39501953125,1.73583984375,-83.1719970703125
2021-09-22 20:50:08.382775,-0.02392578125,0.04150390625,0.99853515625,2.4609375,1.9390869140625,-83.199462890625
2021-09-22 20:50:08.392765,-0.02294921875,0.04150390625,0.99365234375,2.52685546875,2.1368408203125,-83.232421875
2021-09-22 20:50:08.402658,-0.02685546875,0.04345703125,0.9912109375,2.581787109375,2.3291015625,-83.2598876953125
2021-09-22 20:50:08.412748,-0.033203125,0.04443359375,0.9921875,2.63671875,2.515869140625,-83.29833984375
2021-09-22 20:50:08.422704,-0.03857421875,0.04736328125,0.9931640625,2.6861572265625,2.691650390625,-83.3367919921875
2021-09-22 20:50:08.432584,-0.0419921875,0.05322265625,0.99658203125,2.7301025390625,2.8619384765625,-83.3807373046875
2021-09-22 20:50:08.442496,-0.044921875,0.05419921875,0.9951171875,2.7740478515625,3.0157470703125,-83.43017578125
2021-09-22 20:50:08.452397,-0.0478515625,0.052734375,0.99462890625,2.8125,3.153076171875,-83.485107421875
2021-09-22 20:50:08.462442,-0.0478515625,0.04541015625,0.99072265625,2.845458984375,3.284912109375,-83.5455322265625
2021-09-22 20:50:08.472521,-0.04736328125,0.04541015625,0.9873046875,2.87841796875,3.394775390625,-83.60595703125
2021-09-22 20:50:08.482387,-0.0498046875,0.044921875,0.98779296875,2.9168701171875,3.4881591796875,-83.671875
2021-09-22 20:50:08.492263,-0.05029296875,0.048828125,0.9931640625,2.9498291015625,3.5650634765625,-83.73779296875
2021-09-22 20:50:08.502394,-0.05517578125,0.056640625,0.9931640625,2.9827880859375,3.62548828125,-83.8037109375
2021-09-22 20:50:08.512356,-0.056640625,0.0576171875,0.9892578125,3.0047607421875,3.6749267578125,-83.86962890625
2021-09-22 20:50:08.522252,-0.05712890625,0.05126953125,0.98974609375,3.0157470703125,3.702392578125,-83.935546875
2021-09-22 20:50:08.532214,-0.0595703125,0.0478515625,0.986328125,3.0157470703125,3.7188720703125,-83.9959716796875
2021-09-22 20:50:08.542237,-0.0625,0.04541015625,0.98876953125,3.0047607421875,3.7188720703125,-84.0509033203125
2021-09-22 20:50:08.552169,-0.0625,0.0400390625,0.98779296875,2.9937744140625,3.7078857421875,-84.100341796875
2021-09-22 20:50:08.562056,-0.06201171875,0.0380859375,0.994140625,2.9718017578125,3.680419921875,-84.1497802734375
2021-09-22 20:50:08.571963,-0.06005859375,0.03955078125,0.9970703125,2.9443359375,3.636474609375,-84.1937255859375
2021-09-22 20:50:08.582220,-0.05810546875,0.03564453125,1.00341796875,2.900390625,3.58154296875,-84.2266845703125
2021-09-22 20:50:08.592050,-0.05615234375,0.03369140625,1.00341796875,2.8509521484375,3.5101318359375,-84.254150390625
2021-09-22 20:50:08.601947,-0.05712890625,0.03515625,1.0009765625,2.7960205078125,3.4332275390625,-84.276123046875
2021-09-22 20:50:08.612014,-0.05517578125,0.03759765625,0.9990234375,2.735595703125,3.3453369140625,-84.2926025390625
2021-09-22 20:50:08.621930,-0.05615234375,0.03564453125,0.9990234375,2.6751708984375,3.251953125,-84.298095703125
2021-09-22 20:50:08.631841,-0.056640625,0.0361328125,1.0009765625,2.6202392578125,3.153076171875,-84.3035888671875
2021-09-22 20:50:08.641901,-0.05712890625,0.037109375,1.0048828125,2.559814453125,3.0487060546875,-84.298095703125
2021-09-22 20:50:08.651879,-0.0546875,0.03857421875,1.00927734375,2.5103759765625,2.9388427734375,-84.2926025390625
2021-09-22 20:50:08.661814,-0.05126953125,0.04052734375,1.00927734375,2.4554443359375,2.823486328125,-84.2816162109375
2021-09-22 20:50:08.672426,-0.04638671875,0.0380859375,1.0087890625,2.406005859375,2.70263671875,-84.26513671875
2021-09-22 20:50:08.681644,-0.04638671875,0.03369140625,1.00341796875,2.3565673828125,2.5762939453125,-84.2486572265625
2021-09-22 20:50:08.691678,-0.04638671875,0.03955078125,1.00341796875,2.318115234375,2.449951171875,-84.22119140625
2021-09-22 20:50:08.701761,-0.04541015625,0.04248046875,1.0029296875,2.28515625,2.3236083984375,-84.1937255859375
2021-09-22 20:50:08.711589,-0.04150390625,0.0419921875,1.0048828125,2.2576904296875,2.1917724609375,-84.1552734375
2021-09-22 20:50:08.721491,-0.03759765625,0.04052734375,1.00927734375,2.2357177734375,2.0599365234375,-84.122314453125
2021-09-22 20:50:08.731422,-0.037109375,0.0390625,1.01513671875,2.2137451171875,1.9281005859375,-84.0838623046875
2021-09-22 20:50:08.741532,-0.0361328125,0.0380859375,1.0146484375,2.1917724609375,1.790771484375,-84.0399169921875
2021-09-22 20:50:08.751499,-0.03515625,0.03857421875,1.01220703125,2.17529296875,1.658935546875,-84.00146484375
2021-09-22 20:50:08.761358,-0.03369140625,0.037109375,1.01123046875,2.1588134765625,1.527099609375,-83.95751953125
2021-09-22 20:50:08.771263,-0.03076171875,0.0361328125,1.0126953125,2.142333984375,1.395263671875,-83.9190673828125
2021-09-22 20:50:08.781376,-0.0302734375,0.037109375,1.01416015625,2.13134765625,1.263427734375,-83.880615234375
2021-09-22 20:50:08.791288,-0.02880859375,0.03857421875,1.01513671875,2.120361328125,1.1370849609375,-83.8421630859375
2021-09-22 20:50:08.801245,-0.0263671875,0.0400390625,1.017578125,2.109375,1.0107421875,-83.8092041015625
2021-09-22 20:50:08.811467,-0.02099609375,0.04248046875,1.013671875,2.1038818359375,0.889892578125,-83.7762451171875
2021-09-22 20:50:08.821293,-0.01708984375,0.046875,1.00634765625,2.098388671875,0.76904296875,-83.7432861328125
2021-09-22 20:50:08.831143,-0.01220703125,0.0478515625,1.00048828125,2.0928955078125,0.648193359375,-83.7158203125
2021-09-22 20:50:08.841078,-0.01171875,0.04736328125,0.9990234375,2.098388671875,0.538330078125,-83.6883544921875
2021-09-22 20:50:08.851246,-0.01025390625,0.04736328125,1.00244140625,2.1038818359375,0.428466796875,-83.660888671875
2021-09-22 20:50:08.861129,-0.009765625,0.0458984375,1.0048828125,2.1148681640625,0.3240966796875,-83.638916015625
2021-09-22 20:50:08.871086,-0.0078125,0.04150390625,1.00634765625,2.13134765625,0.230712890625,-83.616943359375
2021-09-22 20:50:08.880989,-0.0068359375,0.0419921875,1.009765625,2.1478271484375,0.142822265625,-83.594970703125
2021-09-22 20:50:08.891071,-0.005859375,0.041015625,1.0087890625,2.164306640625,0.0604248046875,-83.5784912109375
2021-09-22 20:50:08.900965,-0.005859375,0.04248046875,1.0087890625,2.1807861328125,-0.0054931640625,-83.56201171875
2021-09-22 20:50:08.911025,-0.00439453125,0.0478515625,1.00830078125,2.197265625,-0.06591796875,-83.551025390625
2021-09-22 20:50:08.920404,-0.005859375,0.052734375,1.0078125,2.2137451171875,-0.1153564453125,-83.5400390625
2021-09-22 20:50:08.930921,-0.00439453125,0.0517578125,1.00537109375,2.2247314453125,-0.1593017578125,-83.529052734375
2021-09-22 20:50:08.940820,-0.00390625,0.05029296875,1.0048828125,2.2357177734375,-0.186767578125,-83.529052734375
2021-09-22 20:50:08.950675,0.00146484375,0.052734375,1.00390625,2.252197265625,-0.208740234375,-83.5235595703125
2021-09-22 20:50:08.960764,0.0029296875,0.0498046875,1.0068359375,2.26318359375,-0.2252197265625,-83.529052734375
2021-09-22 20:50:08.970770,0.00146484375,0.05224609375,1.00634765625,2.274169921875,-0.230712890625,-83.529052734375
2021-09-22 20:50:08.980699,0.001953125,0.05224609375,1.0078125,2.2796630859375,-0.2252197265625,-83.529052734375
2021-09-22 20:50:08.990813,-0.00146484375,0.0537109375,1.009765625,2.28515625,-0.2142333984375,-83.529052734375
2021-09-22 20:50:09.000672,-0.00341796875,0.0615234375,1.0068359375,2.2906494140625,-0.186767578125,-83.5345458984375
2021-09-22 20:50:09.010550,-0.005859375,0.0693359375,1.0087890625,2.3016357421875,-0.1593017578125,-83.5345458984375
2021-09-22 20:50:09.020507,-0.00830078125,0.080078125,1.00537109375,2.3126220703125,-0.120849609375,-83.5345458984375
2021-09-22 20:50:09.030420,-0.00732421875,0.0888671875,1.01025390625,2.3291015625,-0.0823974609375,-83.5400390625
2021-09-22 20:50:09.040528,-0.0087890625,0.091796875,1.0068359375,2.3455810546875,-0.0439453125,-83.5455322265625
2021-09-22 20:50:09.050507,-0.00927734375,0.09423828125,1.0068359375,2.362060546875,0.0,-83.551025390625
2021-09-22 20:50:09.060368,-0.0068359375,0.09423828125,1.0087890625,2.384033203125,0.032958984375,-83.5565185546875
2021-09-22 20:50:09.069951,-0.00732421875,0.09423828125,1.0126953125,2.4005126953125,0.0714111328125,-83.56201171875
2021-09-22 20:50:09.080362,-0.00732421875,0.0849609375,1.01953125,2.406005859375,0.10986328125,-83.572998046875
2021-09-22 20:50:09.090309,-0.01123046875,0.07421875,1.02294921875,2.4114990234375,0.142822265625,-83.583984375
2021-09-22 20:50:09.100410,-0.01220703125,0.06689453125,1.025390625,2.406005859375,0.1702880859375,-83.6004638671875
2021-09-22 20:50:09.110355,-0.01416015625,0.06298828125,1.0283203125,2.4005126953125,0.19775390625,-83.616943359375
2021-09-22 20:50:09.120221,-0.0166015625,0.06494140625,1.02490234375,2.4005126953125,0.2142333984375,-83.6444091796875
2021-09-22 20:50:09.130158,-0.01904296875,0.0673828125,1.025390625,2.4005126953125,0.230712890625,-83.671875
2021-09-22 20:50:09.140075,-0.02197265625,0.0654296875,1.02880859375,2.4114990234375,0.24169921875,-83.7103271484375
2021-09-22 20:50:09.150204,-0.02197265625,0.05908203125,1.0263671875,2.4169921875,0.24169921875,-83.7542724609375
2021-09-22 20:50:09.160338,-0.01904296875,0.05126953125,1.029296875,2.4224853515625,0.2362060546875,-83.7982177734375
2021-09-22 20:50:09.170751,-0.01611328125,0.04443359375,1.02587890625,2.427978515625,0.2197265625,-83.84765625
2021-09-22 20:50:09.179933,-0.0146484375,0.0439453125,1.02587890625,2.4334716796875,0.2032470703125,-83.902587890625
2021-09-22 20:50:09.189860,-0.01318359375,0.0390625,1.021484375,2.43896484375,0.1812744140625,-83.95751953125
2021-09-22 20:50:09.199970,-0.01123046875,0.0302734375,1.02294921875,2.43896484375,0.15380859375,-84.012451171875
2021-09-22 20:50:09.209928,-0.0107421875,0.02587890625,1.02587890625,2.4334716796875,0.120849609375,-84.0673828125
2021-09-22 20:50:09.219875,-0.01171875,0.02099609375,1.02685546875,2.427978515625,0.087890625,-84.122314453125
2021-09-22 20:50:09.229927,-0.01220703125,0.0205078125,1.0185546875,2.4169921875,0.054931640625,-84.17724609375
2021-09-22 20:50:09.239807,-0.009765625,0.02490234375,1.0146484375,2.4114990234375,0.0164794921875,-84.2266845703125
2021-09-22 20:50:09.249735,-0.01220703125,0.0302734375,1.00341796875,2.4169921875,-0.010986328125,-84.2706298828125
2021-09-22 20:50:09.259603,-0.01220703125,0.0302734375,1.00341796875,2.4224853515625,-0.0439453125,-84.3145751953125
2021-09-22 20:50:09.269507,-0.01318359375,0.03955078125,0.994140625,2.4444580078125,-0.076904296875,-84.3585205078125
2021-09-22 20:50:09.279719,-0.0146484375,0.0478515625,0.98681640625,2.4884033203125,-0.1043701171875,-84.3914794921875
2021-09-22 20:50:09.289601,-0.01904296875,0.04736328125,0.98779296875,2.5433349609375,-0.1263427734375,-84.4244384765625
2021-09-22 20:50:09.299502,-0.01806640625,0.04736328125,0.99267578125,2.6092529296875,-0.142822265625,-84.4464111328125
2021-09-22 20:50:09.309421,-0.01513671875,0.0478515625,0.9951171875,2.6751708984375,-0.15380859375,-84.462890625
2021-09-22 20:50:09.319570,-0.0126953125,0.0478515625,0.998046875,2.7410888671875,-0.164794921875,-84.4683837890625
2021-09-22 20:50:09.329589,-0.009765625,0.0517578125,0.998046875,2.801513671875,-0.17578125,-84.462890625
2021-09-22 20:50:09.339418,-0.0078125,0.05615234375,0.98974609375,2.8509521484375,-0.1812744140625,-84.451904296875
2021-09-22 20:50:09.349264,-0.00439453125,0.0576171875,0.98046875,2.900390625,-0.1812744140625,-84.4244384765625
2021-09-22 20:50:09.359402,-0.00341796875,0.0595703125,0.97412109375,2.9388427734375,-0.1812744140625,-84.385986328125
2021-09-22 20:50:09.369290,-0.00244140625,0.0595703125,0.97119140625,2.977294921875,-0.17578125,-84.3365478515625
2021-09-22 20:50:09.379213,0.0029296875,0.05615234375,0.974609375,3.0047607421875,-0.1812744140625,-84.2706298828125
2021-09-22 20:50:09.389336,0.00634765625,0.05615234375,0.97216796875,3.0267333984375,-0.186767578125,-84.19921875
2021-09-22 20:50:09.399276,0.00927734375,0.05712890625,0.97900390625,3.0377197265625,-0.1922607421875,-84.122314453125
2021-09-22 20:50:09.409148,0.01025390625,0.05419921875,0.9755859375,3.043212890625,-0.2032470703125,-84.034423828125
2021-09-22 20:50:09.419094,0.01025390625,0.0546875,0.97314453125,3.043212890625,-0.2197265625,-83.946533203125
2021-09-22 20:50:09.429043,0.01220703125,0.04736328125,0.97412109375,3.0377197265625,-0.24169921875,-83.858642578125
2021-09-22 20:50:09.439089,0.0146484375,0.03857421875,0.9765625,3.0157470703125,-0.2691650390625,-83.770751953125
2021-09-22 20:50:09.449095,0.01708984375,0.037109375,0.9853515625,2.98828125,-0.3021240234375,-83.6883544921875
2021-09-22 20:50:09.458983,0.017578125,0.03466796875,0.99462890625,2.9498291015625,-0.340576171875,-83.6114501953125
2021-09-22 20:50:09.468885,0.015625,0.0283203125,0.9990234375,2.8948974609375,-0.384521484375,-83.5345458984375
2021-09-22 20:50:09.478934,0.01416015625,0.0263671875,1.00341796875,2.823486328125,-0.428466796875,-83.4686279296875
2021-09-22 20:50:09.488868,0.013671875,0.02783203125,1.001953125,2.74658203125,-0.4833984375,-83.408203125
2021-09-22 20:50:09.498765,0.01806640625,0.0283203125,0.99658203125,2.65869140625,-0.5438232421875,-83.3587646484375
2021-09-22 20:50:09.508844,0.02001953125,0.0263671875,0.994140625,2.5653076171875,-0.615234375,-83.309326171875
2021-09-22 20:50:09.518865,0.01953125,0.0234375,0.9931640625,2.471923828125,-0.6866455078125,-83.265380859375
2021-09-22 20:50:09.528757,0.02001953125,0.02197265625,0.99072265625,2.384033203125,-0.76904296875,-83.232421875
2021-09-22 20:50:09.538705,0.02392578125,0.01953125,0.99560546875,2.3016357421875,-0.85693359375,-83.199462890625
2021-09-22 20:50:09.548642,0.0302734375,0.017578125,0.99951171875,2.2247314453125,-0.9503173828125,-83.16650390625
2021-09-22 20:50:09.558752,0.03369140625,0.0185546875,0.99853515625,2.1588134765625,-1.0546875,-83.1390380859375
2021-09-22 20:50:09.568778,0.03271484375,0.0205078125,0.9951171875,2.109375,-1.153564453125,-83.1060791015625
2021-09-22 20:50:09.578563,0.0322265625,0.017578125,0.9951171875,2.0654296875,-1.2579345703125,-83.0731201171875
2021-09-22 20:50:09.588441,0.03271484375,0.01513671875,0.99951171875,2.032470703125,-1.3623046875,-83.03466796875
2021-09-22 20:50:09.598537,0.033203125,0.013671875,1.0068359375,2.0050048828125,-1.4666748046875,-83.001708984375
2021-09-22 20:50:09.608468,0.0341796875,0.009765625,1.01171875,1.9775390625,-1.5655517578125,-82.957763671875
2021-09-22 20:50:09.618354,0.03759765625,0.0078125,1.01171875,1.944580078125,-1.6644287109375,-82.913818359375
2021-09-22 20:50:09.628618,0.03857421875,0.00439453125,1.01123046875,1.9171142578125,-1.7578125,-82.869873046875
2021-09-22 20:50:09.638433,0.03857421875,0.0048828125,1.0048828125,1.8841552734375,-1.845703125,-82.8204345703125
2021-09-22 20:50:09.648314,0.0400390625,0.0068359375,0.99853515625,1.8511962890625,-1.9281005859375,-82.77099609375
2021-09-22 20:50:09.658226,0.0380859375,0.00634765625,0.9951171875,1.82373046875,-1.99951171875,-82.716064453125
2021-09-22 20:50:09.668885,0.03564453125,0.00732421875,0.9970703125,1.7962646484375,-2.0654296875,-82.6611328125
2021-09-22 20:50:09.678299,0.03466796875,0.01025390625,1.00048828125,1.7742919921875,-2.120361328125,-82.606201171875
2021-09-22 20:50:09.688323,0.03515625,0.0107421875,1.0,1.7413330078125,-2.1697998046875,-82.55126953125
2021-09-22 20:50:09.698158,0.0361328125,0.00830078125,0.99951171875,1.7083740234375,-2.2137451171875,-82.496337890625
2021-09-22 20:50:09.708106,0.03662109375,0.0078125,1.0,1.669921875,-2.2467041015625,-82.4468994140625
2021-09-22 20:50:09.718170,0.03759765625,0.0087890625,0.9951171875,1.636962890625,-2.2686767578125,-82.3974609375
2021-09-22 20:50:09.728065,0.0380859375,0.009765625,0.9951171875,1.6094970703125,-2.28515625,-82.353515625
2021-09-22 20:50:09.737957,0.03857421875,0.00927734375,0.9921875,1.58203125,-2.2906494140625,-82.3150634765625
2021-09-22 20:50:09.747962,0.0380859375,0.0078125,0.9912109375,1.56005859375,-2.2906494140625,-82.276611328125
2021-09-22 20:50:09.757984,0.0380859375,0.00390625,0.98779296875,1.5435791015625,-2.28515625,-82.2491455078125
2021-09-22 20:50:09.767917,0.044921875,0.00146484375,0.98779296875,1.5325927734375,-2.274169921875,-82.2216796875
2021-09-22 20:50:09.777834,0.04833984375,0.00146484375,0.98974609375,1.51611328125,-2.2576904296875,-82.1942138671875
2021-09-22 20:50:09.787916,0.04736328125,0.0029296875,0.9921875,1.505126953125,-2.2357177734375,-82.166748046875
2021-09-22 20:50:09.797917,0.0458984375,0.00390625,0.99658203125,1.494140625,-2.208251953125,-82.144775390625
2021-09-22 20:50:09.807806,0.0478515625,0.00146484375,0.99365234375,1.47216796875,-2.17529296875,-82.1173095703125
2021-09-22 20:50:09.817652,0.04931640625,-0.001953125,0.99755859375,1.4447021484375,-2.1368408203125,-82.08984375
2021-09-22 20:50:09.827789,0.0498046875,-0.00439453125,0.99609375,1.4007568359375,-2.098388671875,-82.0623779296875
2021-09-22 20:50:09.837710,0.046875,-0.0068359375,0.99609375,1.3458251953125,-2.054443359375,-82.034912109375
2021-09-22 20:50:09.847577,0.04248046875,-0.0078125,0.99169921875,1.285400390625,-2.010498046875,-82.0074462890625
2021-09-22 20:50:09.857583,0.03955078125,-0.0029296875,0.99462890625,1.2249755859375,-1.9610595703125,-81.9744873046875
2021-09-22 20:50:09.867663,0.0400390625,0.00146484375,0.99462890625,1.1590576171875,-1.91162109375,-81.947021484375
2021-09-22 20:50:09.877578,0.04052734375,0.00048828125,0.9931640625,1.0986328125,-1.86767578125,-81.9195556640625
2021-09-22 20:50:09.887441,0.04541015625,-0.00341796875,0.9990234375,1.03271484375,-1.8292236328125,-81.8975830078125
2021-09-22 20:50:09.897585,0.048828125,-0.0087890625,0.9970703125,0.9613037109375,-1.8017578125,-81.8701171875
2021-09-22 20:50:09.907551,0.04931640625,-0.0087890625,1.00244140625,0.8953857421875,-1.7742919921875,-81.8426513671875
2021-09-22 20:50:09.917512,0.048828125,-0.00390625,1.00146484375,0.8349609375,-1.7523193359375,-81.8206787109375
2021-09-22 20:50:09.927517,0.04638671875,0.00390625,1.00537109375,0.780029296875,-1.73583984375,-81.7987060546875
2021-09-22 20:50:09.937461,0.04345703125,0.00439453125,1.00390625,0.736083984375,-1.724853515625,-81.7822265625
2021-09-22 20:50:09.947315,0.0400390625,0.00537109375,1.00390625,0.692138671875,-1.7138671875,-81.771240234375
2021-09-22 20:50:09.957260,0.04052734375,0.009765625,1.00732421875,0.6591796875,-1.7083740234375,-81.76025390625
2021-09-22 20:50:09.967291,0.041015625,0.00732421875,1.0029296875,0.6317138671875,-1.7083740234375,-81.7547607421875
2021-09-22 20:50:09.977299,0.04052734375,0.00634765625,1.0,0.6097412109375,-1.7193603515625,-81.749267578125
2021-09-22 20:50:09.987222,0.04052734375,0.0048828125,1.00048828125,0.59326171875,-1.7303466796875,-81.749267578125
2021-09-22 20:50:09.997091,0.0400390625,0.0048828125,1.00439453125,0.582275390625,-1.746826171875,-81.749267578125
2021-09-22 20:50:10.007195,0.0390625,0.001953125,1.0078125,0.5767822265625,-1.7633056640625,-81.7547607421875
2021-09-22 20:50:10.017127,0.03857421875,0.00244140625,1.009765625,0.5657958984375,-1.7852783203125,-81.7657470703125
2021-09-22 20:50:10.027228,0.0380859375,0.00244140625,1.01123046875,0.560302734375,-1.812744140625,-81.7767333984375
2021-09-22 20:50:10.037025,0.037109375,0.0048828125,1.0126953125,0.5548095703125,-1.834716796875,-81.793212890625
2021-09-22 20:50:10.047057,0.033203125,0.001953125,1.01318359375,0.5438232421875,-1.856689453125,-81.815185546875
2021-09-22 20:50:10.056993,0.03125,0.0029296875,1.009765625,0.52734375,-1.878662109375,-81.837158203125
2021-09-22 20:50:10.066844,0.0322265625,0.005859375,1.0107421875,0.4998779296875,-1.900634765625,-81.8646240234375
2021-09-22 20:50:10.076758,0.03076171875,0.00732421875,1.00927734375,0.472412109375,-1.922607421875,-81.89208984375
2021-09-22 20:50:10.086991,0.03125,0.0107421875,1.005859375,0.4449462890625,-1.944580078125,-81.925048828125
2021-09-22 20:50:10.096831,0.03564453125,0.01025390625,1.00439453125,0.4119873046875,-1.9610595703125,-81.9635009765625
2021-09-22 20:50:10.106746,0.03955078125,0.00830078125,1.0048828125,0.3790283203125,-1.9830322265625,-82.001953125
2021-09-22 20:50:10.116697,0.0439453125,0.009765625,1.00537109375,0.3570556640625,-1.99951171875,-82.0404052734375
2021-09-22 20:50:10.126824,0.04541015625,0.01123046875,1.00439453125,0.3350830078125,-2.0159912109375,-82.078857421875
2021-09-22 20:50:10.136812,0.04248046875,0.01171875,1.00537109375,0.3131103515625,-2.021484375,-82.1173095703125
2021-09-22 20:50:10.146677,0.03955078125,0.01025390625,1.00634765625,0.2911376953125,-2.021484375,-82.1502685546875
2021-09-22 20:50:10.156530,0.0390625,0.005859375,1.01171875,0.274658203125,-2.0159912109375,-82.188720703125
2021-09-22 20:50:10.167174,0.0361328125,-0.00048828125,1.0126953125,0.2471923828125,-1.99951171875,-82.2216796875
2021-09-22 20:50:10.176558,0.03515625,-0.00390625,1.0126953125,0.2197265625,-1.9830322265625,-82.254638671875
2021-09-22 20:50:10.186480,0.03369140625,-0.00634765625,1.02197265625,0.1922607421875,-1.95556640625,-82.2930908203125
2021-09-22 20:50:10.196644,0.03076171875,-0.00439453125,1.029296875,0.164794921875,-1.9281005859375,-82.33154296875
2021-09-22 20:50:10.206558,0.025390625,0.001953125,1.037109375,0.1373291015625,-1.8841552734375,-82.3809814453125
2021-09-22 20:50:10.216423,-0.01171875,0.00732421875,1.224609375,0.1153564453125,-1.82373046875,-82.41943359375
2021-09-22 20:50:10.226318,-0.16357421875,0.021484375,0.8486328125,0.1702880859375,-1.6424560546875,-82.3260498046875
2021-09-22 20:50:10.236339,-0.20703125,-0.03173828125,0.6845703125,0.17578125,-1.395263671875,-82.1282958984375
2021-09-22 20:50:10.246460,0.0419921875,0.142578125,1.2802734375,0.186767578125,-1.25244140625,-82.0733642578125
2021-09-22 20:50:10.256409,0.03515625,-0.0146484375,0.9560546875,0.2032470703125,-1.1865234375,-82.1063232421875
2021-09-22 20:50:10.266257,0.017578125,-0.09423828125,0.86279296875,0.2032470703125,-1.142578125,-82.122802734375
2021-09-22 20:50:10.276191,0.0498046875,-0.029296875,1.15576171875,0.252685546875,-1.0107421875,-82.11181640625
2021-09-22 20:50:10.286237,0.11181640625,-0.060546875,1.03369140625,0.3350830078125,-0.9228515625,-82.11181640625
2021-09-22 20:50:10.296137,0.15087890625,-0.0146484375,1.00927734375,0.4119873046875,-0.9063720703125,-82.144775390625
2021-09-22 20:50:10.306048,0.15966796875,0.04345703125,1.11279296875,0.516357421875,-0.94482421875,-82.15576171875
2021-09-22 20:50:10.316159,0.01025390625,0.0390625,0.98388671875,0.5877685546875,-0.9722900390625,-82.0843505859375
2021-09-22 20:50:10.326167,-0.0859375,0.0439453125,1.08984375,0.6097412109375,-0.933837890625,-82.0623779296875
2021-09-22 20:50:10.336024,-0.06201171875,0.12353515625,0.9677734375,0.5877685546875,-0.845947265625,-82.144775390625
2021-09-22 20:50:10.345941,0.04345703125,0.06201171875,1.00390625,0.4998779296875,-0.7745361328125,-82.3150634765625
2021-09-22 20:50:10.355835,0.017578125,0.0419921875,1.21728515625,0.472412109375,-0.6427001953125,-82.606201171875
2021-09-22 20:50:10.365999,0.04052734375,0.04931640625,1.21044921875,0.54931640625,-0.5657958984375,-83.001708984375
2021-09-22 20:50:10.375903,0.080078125,0.029296875,0.95166015625,0.6427001953125,-0.516357421875,-83.4356689453125
2021-09-22 20:50:10.385879,0.0419921875,0.04345703125,0.83544921875,0.736083984375,-0.4119873046875,-83.902587890625
2021-09-22 20:50:10.395754,-0.017578125,-0.00048828125,0.89111328125,0.7745361328125,-0.2691650390625,-84.3585205078125
2021-09-22 20:50:10.405835,-0.017578125,0.048828125,0.87109375,0.791015625,-0.098876953125,-84.7265625
2021-09-22 20:50:10.415704,0.06005859375,0.0810546875,0.99853515625,0.7305908203125,0.087890625,-85.01220703125
2021-09-22 20:50:10.425622,0.0458984375,0.060546875,1.0732421875,0.63720703125,0.2471923828125,-85.2484130859375
2021-09-22 20:50:10.436019,0.02099609375,-0.00146484375,0.8251953125,0.5877685546875,0.384521484375,-85.4351806640625
2021-09-22 20:50:10.445749,0.02001953125,0.0166015625,0.876953125,0.5328369140625,0.538330078125,-85.6329345703125
2021-09-22 20:50:10.455607,-0.09423828125,-0.03466796875,0.92431640625,0.472412109375,0.7635498046875,-85.8197021484375
2021-09-22 20:50:10.465534,-0.1044921875,0.0029296875,0.9462890625,0.450439453125,1.0546875,-85.9405517578125
2021-09-22 20:50:10.475669,-0.0107421875,0.01806640625,1.1015625,0.439453125,1.329345703125,-86.0009765625
2021-09-22 20:50:10.485559,0.04638671875,-0.0498046875,0.9033203125,0.406494140625,1.5985107421875,-86.0284423828125
2021-09-22 20:50:10.495554,-0.03173828125,0.0791015625,1.15673828125,0.3680419921875,1.900634765625,-86.0009765625
2021-09-22 20:50:10.505440,-0.08642578125,0.05810546875,1.1318359375,0.263671875,2.1038818359375,-85.836181640625
2021-09-22 20:50:10.515474,-0.0986328125,-0.015625,0.93359375,0.17578125,2.3455810546875,-85.58349609375
2021-09-22 20:50:10.525404,-0.08349609375,-0.01416015625,1.10107421875,0.0714111328125,2.61474609375,-85.2813720703125
2021-09-22 20:50:10.535311,-0.08984375,-0.03662109375,1.2451171875,0.054931640625,2.83447265625,-84.92431640625
2021-09-22 20:50:10.545372,-0.0791015625,0.01953125,0.978515625,0.0933837890625,3.065185546875,-84.4573974609375
2021-09-22 20:50:10.555477,-0.10009765625,-0.0185546875,1.02685546875,0.1483154296875,3.2684326171875,-83.91357421875
2021-09-22 20:50:10.565301,-0.0615234375,-0.01318359375,1.01513671875,0.252685546875,3.40576171875,-83.38623046875
2021-09-22 20:50:10.575142,-0.10302734375,0.02392578125,1.01025390625,0.4010009765625,3.526611328125,-82.957763671875
2021-09-22 20:50:10.585084,-0.14111328125,-0.03564453125,0.91455078125,0.560302734375,3.66943359375,-82.6336669921875
2021-09-22 20:50:10.595236,-0.12451171875,-0.01025390625,1.06298828125,0.714111328125,3.7847900390625,-82.3699951171875
2021-09-22 20:50:10.605190,-0.06982421875,-0.0224609375,0.80419921875,0.8514404296875,3.8507080078125,-82.15576171875
2021-09-22 20:50:10.615123,-0.10888671875,0.00244140625,0.919921875,0.9503173828125,3.88916015625,-81.9635009765625
2021-09-22 20:50:10.624993,-0.0712890625,-0.01806640625,1.10498046875,1.0821533203125,3.856201171875,-81.76025390625
2021-09-22 20:50:10.635058,-0.07421875,0.0556640625,1.076171875,1.2249755859375,3.790283203125,-81.58447265625
2021-09-22 20:50:10.644914,-0.1376953125,0.0146484375,1.0927734375,1.3568115234375,3.7408447265625,-81.4581298828125
2021-09-22 20:50:10.654872,-0.0947265625,0.0419921875,0.9560546875,1.47216796875,3.6639404296875,-81.4361572265625
2021-09-22 20:50:10.665501,-0.0400390625,0.05078125,1.025390625,1.5380859375,3.53759765625,-81.529541015625
2021-09-22 20:50:10.674756,0.0009765625,0.06884765625,1.0234375,1.571044921875,3.394775390625,-81.7327880859375
2021-09-22 20:50:10.684825,0.029296875,0.19873046875,0.95166015625,1.636962890625,3.22998046875,-82.0458984375
2021-09-22 20:50:10.694720,-0.09033203125,0.07421875,1.29833984375,1.702880859375,3.087158203125,-82.4249267578125
2021-09-22 20:50:10.704708,-0.0546875,0.0322265625,0.9931640625,1.8017578125,2.8509521484375,-82.90283203125
2021-09-22 20:50:10.714641,0.05322265625,0.05712890625,1.05126953125,1.790771484375,2.6806640625,-83.4796142578125
2021-09-22 20:50:10.724682,0.060546875,0.12841796875,0.8955078125,1.746826171875,2.5433349609375,-84.08935546875
2021-09-22 20:50:10.734615,0.0224609375,0.08203125,0.8427734375,1.724853515625,2.406005859375,-84.6990966796875
2021-09-22 20:50:10.744506,-0.06494140625,0.0634765625,0.9990234375,1.724853515625,2.3126220703125,-85.27587890625
2021-09-22 20:50:10.754589,-0.03125,0.17431640625,0.94091796875,1.724853515625,2.2467041015625,-85.7537841796875
2021-09-22 20:50:10.764518,0.0634765625,0.095703125,0.8798828125,1.6259765625,2.164306640625,-86.0943603515625
2021-09-22 20:50:10.774429,0.09130859375,0.05322265625,0.98388671875,1.5106201171875,2.076416015625,-86.319580078125
2021-09-22 20:50:10.784475,0.05908203125,0.00830078125,0.87109375,1.42822265625,1.9720458984375,-86.495361328125
2021-09-22 20:50:10.794486,0.0009765625,0.05908203125,0.87451171875,1.3568115234375,1.900634765625,-86.671142578125
2021-09-22 20:50:10.804368,-0.05419921875,0.02587890625,0.884765625,1.2744140625,1.9171142578125,-86.8084716796875
2021-09-22 20:50:10.814305,-0.06005859375,0.01904296875,1.02587890625,1.2469482421875,1.99951171875,-86.85791015625
2021-09-22 20:50:10.824287,0.0146484375,0.0205078125,1.03564453125,1.2908935546875,2.0709228515625,-86.8359375
2021-09-22 20:50:10.834364,0.044921875,-0.068359375,0.8251953125,1.329345703125,2.142333984375,-86.7755126953125
2021-09-22 20:50:10.844497,-0.01806640625,0.10888671875,1.216796875,1.4007568359375,2.2467041015625,-86.63818359375
2021-09-22 20:50:10.854233,-0.08154296875,0.03076171875,1.11083984375,1.4227294921875,2.274169921875,-86.3525390625
2021-09-22 20:50:10.864103,-0.08251953125,-0.015625,0.92333984375,1.461181640625,2.362060546875,-85.9844970703125
2021-09-22 20:50:10.874233,-0.0556640625,-0.01904296875,1.056640625,1.505126953125,2.471923828125,-85.572509765625
2021-09-22 20:50:10.884102,-0.0654296875,-0.0341796875,1.296875,1.6424560546875,2.5543212890625,-85.1055908203125
2021-09-22 20:50:10.893993,-0.048828125,0.0068359375,0.9853515625,1.8621826171875,2.6422119140625,-84.52880859375
2021-09-22 20:50:10.904008,-0.08154296875,0.0107421875,1.021484375,2.098388671875,2.7081298828125,-83.8861083984375
2021-09-22 20:50:10.914038,-0.06298828125,0.013671875,1.00439453125,2.384033203125,2.7301025390625,-83.25439453125
2021-09-22 20:50:10.923974,-0.08203125,0.0615234375,1.01416015625,2.713623046875,2.7410888671875,-82.7215576171875
2021-09-22 20:50:10.933903,-0.12939453125,-0.0302734375,0.91162109375,3.0377197265625,2.779541015625,-82.2821044921875
2021-09-22 20:50:10.943833,-0.1220703125,-0.03271484375,1.05322265625,3.3782958984375,2.8070068359375,-81.9140625
2021-09-22 20:50:10.953940,-0.072265625,-0.0146484375,0.802734375,3.702392578125,2.8070068359375,-81.6119384765625
2021-09-22 20:50:10.963855,-0.11181640625,0.01220703125,0.90478515625,3.9990234375,2.801513671875,-81.3427734375
2021-09-22 20:50:10.973771,-0.068359375,-0.00390625,1.10205078125,4.3341064453125,2.713623046875,-81.0955810546875
2021-09-22 20:50:10.983695,-0.0634765625,0.0693359375,1.048828125,4.669189453125,2.5982666015625,-80.870361328125
2021-09-22 20:50:10.993586,-0.130859375,0.0498046875,1.0576171875,5.0042724609375,2.5048828125,-80.70556640625
2021-09-22 20:50:11.003663,-0.0791015625,0.07373046875,0.9345703125,5.3118896484375,2.39501953125,-80.6396484375
2021-09-22 20:50:11.013817,-0.0263671875,0.07958984375,0.98193359375,5.5645751953125,2.252197265625,-80.694580078125
2021-09-22 20:50:11.023573,0.01513671875,0.08349609375,0.9853515625,5.7568359375,2.08740234375,-80.8648681640625
2021-09-22 20:50:11.033447,0.06103515625,0.2197265625,0.92919921875,5.9710693359375,1.922607421875,-81.134033203125
2021-09-22 20:50:11.043374,-0.06640625,0.12841796875,1.2451171875,6.163330078125,1.7962646484375,-81.485595703125
2021-09-22 20:50:11.053493,-0.05615234375,0.0673828125,0.9873046875,6.383056640625,1.5985107421875,-81.9305419921875
2021-09-22 20:50:11.063403,0.06689453125,0.08251953125,0.93603515625,6.4764404296875,1.4501953125,-82.46337890625
2021-09-22 20:50:11.073360,0.078125,0.17724609375,0.8642578125,6.5093994140625,1.3623046875,-83.0401611328125
2021-09-22 20:50:11.083464,0.0244140625,0.1123046875,0.748046875,6.5313720703125,1.2744140625,-83.6224365234375
2021-09-22 20:50:11.093355,-0.0830078125,0.0810546875,0.94384765625,6.5313720703125,1.241455078125,-84.1827392578125
2021-09-22 20:50:11.103232,-0.05859375,0.1787109375,0.90966796875,6.5313720703125,1.241455078125,-84.66064453125
2021-09-22 20:50:11.113220,0.052734375,0.19287109375,0.7783203125,6.43798828125,1.219482421875,-85.001220703125
2021-09-22 20:50:11.123244,0.07275390625,0.09814453125,1.0078125,6.251220703125,1.1810302734375,-85.2484130859375
2021-09-22 20:50:11.133432,0.0400390625,0.05419921875,0.81103515625,6.075439453125,1.131591796875,-85.4571533203125
2021-09-22 20:50:11.143171,0.01416015625,0.09228515625,0.8515625,5.855712890625,1.0986328125,-85.6658935546875
2021-09-22 20:50:11.153016,-0.05078125,0.04248046875,0.8681640625,5.5865478515625,1.1480712890625,-85.8416748046875
2021-09-22 20:50:11.163647,-0.06689453125,0.03759765625,1.001953125,5.3338623046875,1.263427734375,-85.93505859375
2021-09-22 20:50:11.173076,0.0068359375,0.0478515625,1.00732421875,5.130615234375,1.3677978515625,-85.968017578125
2021-09-22 20:50:11.183029,0.0283203125,-0.01416015625,0.8408203125,4.9273681640625,1.483154296875,-85.9625244140625
2021-09-22 20:50:11.193195,-0.03271484375,0.13427734375,1.17041015625,4.7406005859375,1.6314697265625,-85.8966064453125
2021-09-22 20:50:11.203044,-0.11376953125,0.09619140625,1.14453125,4.482421875,1.702880859375,-85.704345703125
2021-09-22 20:50:11.212893,-0.10498046875,0.0009765625,0.8984375,4.2352294921875,1.8072509765625,-85.4351806640625
2021-09-22 20:50:11.222870,-0.0771484375,0.01171875,1.04248046875,3.9715576171875,1.9281005859375,-85.133056640625
2021-09-22 20:50:11.232897,-0.0947265625,-0.01904296875,1.31884765625,3.7957763671875,1.99951171875,-84.7979736328125
2021-09-22 20:50:11.242817,-0.08984375,0.052734375,1.0009765625,3.7298583984375,2.08740234375,-84.375
2021-09-22 20:50:11.252843,-0.11279296875,0.064453125,0.9970703125,3.6968994140625,2.1478271484375,-83.8970947265625
2021-09-22 20:50:11.262747,-0.07373046875,0.0615234375,0.98388671875,3.724365234375,2.13134765625,-83.4521484375
2021-09-22 20:50:11.272634,-0.091796875,0.10302734375,0.98583984375,3.8067626953125,2.1038818359375,-83.0950927734375
2021-09-22 20:50:11.282778,-0.12353515625,0.01708984375,0.896484375,3.9056396484375,2.098388671875,-82.8369140625
2021-09-22 20:50:11.292690,-0.08837890625,0.02099609375,1.0361328125,4.0264892578125,2.076416015625,-82.650146484375
2021-09-22 20:50:11.302565,-0.02783203125,0.0322265625,0.77734375,4.141845703125,2.0159912109375,-82.4908447265625
2021-09-22 20:50:11.312578,-0.05419921875,0.04638671875,0.91650390625,4.2242431640625,1.9390869140625,-82.342529296875
2021-09-22 20:50:11.322630,-0.01171875,-0.02001953125,1.0908203125,4.3231201171875,1.8072509765625,-82.1722412109375
2021-09-22 20:50:11.332505,0.00048828125,0.080078125,1.09326171875,4.4384765625,1.6534423828125,-82.001953125
2021-09-22 20:50:11.342583,-0.068359375,0.068359375,1.09619140625,4.559326171875,1.5380859375,-81.8426513671875
2021-09-22 20:50:11.352355,-0.04931640625,0.083984375,0.9970703125,4.6417236328125,1.4227294921875,-81.7437744140625
2021-09-22 20:50:11.362442,0.009765625,0.0947265625,0.9990234375,4.6636962890625,1.2799072265625,-81.73828125
2021-09-22 20:50:11.372447,0.0625,0.08837890625,1.0341796875,4.6087646484375,1.12060546875,-81.8206787109375
2021-09-22 20:50:11.382321,0.09814453125,0.17822265625,1.01513671875,4.5428466796875,0.955810546875,-81.9744873046875
2021-09-22 20:50:11.392232,-0.04443359375,0.1220703125,1.30322265625,4.46044921875,0.8514404296875,-82.188720703125
2021-09-22 20:50:11.402369,-0.033203125,0.07177734375,1.04833984375,4.4329833984375,0.670166015625,-82.4798583984375
2021-09-22 20:50:11.412319,0.0673828125,0.07666015625,0.9921875,4.28466796875,0.5438232421875,-82.8533935546875
2021-09-22 20:50:11.422248,0.0966796875,0.1748046875,0.9453125,4.0924072265625,0.4779052734375,-83.2708740234375
2021-09-22 20:50:11.432100,0.05810546875,0.09228515625,0.78173828125,3.9056396484375,0.3955078125,-83.682861328125
2021-09-22 20:50:11.442023,-0.06787109375,0.0654296875,0.99560546875,3.746337890625,0.384521484375,-84.056396484375
2021-09-22 20:50:11.452148,-0.0322265625,0.1708984375,0.943359375,3.62548828125,0.406494140625,-84.364013671875
2021-09-22 20:50:11.462034,0.05859375,0.15234375,0.89453125,3.4222412109375,0.428466796875,-84.55078125
2021-09-22 20:50:11.471944,0.08251953125,0.04345703125,1.0361328125,3.1915283203125,0.439453125,-84.638671875
2021-09-22 20:50:11.482301,0.060546875,0.0107421875,0.85888671875,2.999267578125,0.4229736328125,-84.693603515625
2021-09-22 20:50:11.492021,0.0146484375,0.0537109375,0.93115234375,2.8125,0.428466796875,-84.7650146484375
2021-09-22 20:50:11.501902,-0.05712890625,0.015625,0.904296875,2.61474609375,0.5218505859375,-84.825439453125
2021-09-22 20:50:11.511805,-0.06982421875,0.00732421875,1.05810546875,2.449951171875,0.6756591796875,-84.8199462890625
2021-09-22 20:50:11.521977,0.0048828125,0.013671875,1.06982421875,2.340087890625,0.81298828125,-84.7760009765625
2021-09-22 20:50:11.531891,0.02978515625,-0.0458984375,0.91796875,2.21923828125,0.94482421875,-84.7100830078125
2021-09-22 20:50:11.541935,-0.03564453125,0.11669921875,1.2451171875,2.1148681640625,1.1151123046875,-84.6002197265625
2021-09-22 20:50:11.551690,-0.10302734375,0.0556640625,1.1826171875,1.9390869140625,1.197509765625,-84.3585205078125
2021-09-22 20:50:11.561771,-0.099609375,-0.017578125,0.93896484375,1.77978515625,1.3128662109375,-84.0509033203125
2021-09-22 20:50:11.571694,-0.08056640625,-0.017578125,1.0712890625,1.614990234375,1.4556884765625,-83.7103271484375
2021-09-22 20:50:11.581587,-0.068359375,-0.048828125,1.3603515625,1.5325927734375,1.549072265625,-83.3258056640625
2021-09-22 20:50:11.591510,-0.046875,0.0078125,1.0537109375,1.5325927734375,1.6534423828125,-82.8533935546875
2021-09-22 20:50:11.601841,-0.07177734375,-0.0048828125,1.0517578125,1.5435791015625,1.7083740234375,-82.3150634765625
2021-09-22 20:50:11.611672,-0.06494140625,0.01123046875,1.0654296875,1.593017578125,1.7138671875,-81.80419921875
2021-09-22 20:50:11.621563,-0.0751953125,0.05712890625,1.037109375,1.680908203125,1.6864013671875,-81.3812255859375
2021-09-22 20:50:11.631498,-0.107421875,-0.01904296875,0.96484375,1.7523193359375,1.6754150390625,-81.0516357421875
2021-09-22 20:50:11.641381,-0.087890625,-0.0234375,1.0810546875,1.8292236328125,1.6314697265625,-80.8099365234375
2021-09-22 20:50:11.651465,-0.033203125,-0.02783203125,0.83154296875,1.8731689453125,1.5380859375,-80.6231689453125
2021-09-22 20:50:11.661831,-0.04248046875,-0.01025390625,0.98828125,1.8511962890625,1.4117431640625,-80.4638671875
2021-09-22 20:50:11.671432,0.001953125,-0.04150390625,1.126953125,1.8621826171875,1.2249755859375,-80.3045654296875
2021-09-22 20:50:11.681412,-0.00537109375,0.04443359375,1.11669921875,1.8731689453125,0.9942626953125,-80.167236328125
2021-09-22 20:50:11.691291,-0.08447265625,0.04541015625,1.095703125,1.8841552734375,0.8074951171875,-80.0738525390625
2021-09-22 20:50:11.701257,-0.0458984375,0.064453125,1.0048828125,1.86767578125,0.604248046875,-80.0738525390625
2021-09-22 20:50:11.711137,0.005859375,0.0576171875,1.025390625,1.8017578125,0.362548828125,-80.2056884765625
2021-09-22 20:50:11.721441,0.0439453125,0.06982421875,1.03662109375,1.7193603515625,0.10986328125,-80.4638671875
2021-09-22 20:50:11.731163,0.09814453125,0.17333984375,0.99609375,1.6644287109375,-0.142822265625,-80.826416015625
2021-09-22 20:50:11.741069,-0.0283203125,0.12890625,1.2939453125,1.6314697265625,-0.3350830078125,-81.2823486328125
2021-09-22 20:50:11.751042,-0.01171875,0.0263671875,1.0693359375,1.69189453125,-0.615234375,-81.84814453125
2021-09-22 20:50:11.761130,0.0947265625,0.0615234375,0.99365234375,1.680908203125,-0.8514404296875,-82.50732421875
2021-09-22 20:50:11.771028,0.1083984375,0.11083984375,0.9169921875,1.64794921875,-1.0107421875,-83.2379150390625
2021-09-22 20:50:11.781149,0.05859375,0.08984375,0.806640625,1.64794921875,-1.142578125,-83.9794921875
2021-09-22 20:50:11.790908,-0.03759765625,0.02734375,0.97021484375,1.6644287109375,-1.219482421875,-84.6881103515625
2021-09-22 20:50:11.800795,0.01611328125,0.11669921875,0.982421875,1.6864013671875,-1.241455078125,-85.2978515625
2021-09-22 20:50:11.810724,0.1201171875,0.08642578125,0.880859375,1.6094970703125,-1.263427734375,-85.7647705078125
2021-09-22 20:50:11.820755,0.13037109375,0.00341796875,1.0634765625,1.47216796875,-1.2579345703125,-86.1053466796875
2021-09-22 20:50:11.830657,0.1005859375,-0.013671875,0.86328125,1.351318359375,-1.2359619140625,-86.363525390625
2021-09-22 20:50:11.840812,0.0576171875,0.0009765625,0.91552734375,1.197509765625,-1.1865234375,-86.5997314453125
2021-09-22 20:50:11.850788,-0.00439453125,-0.03271484375,0.92333984375,0.9942626953125,-1.021728515625,-86.7919921875
2021-09-22 20:50:11.860661,-0.04150390625,-0.0419921875,1.0361328125,0.7965087890625,-0.7635498046875,-86.8853759765625
2021-09-22 20:50:11.870608,0.01611328125,-0.0166015625,1.0703125,0.6536865234375,-0.4888916015625,-86.90185546875
2021-09-22 20:50:11.880715,0.048828125,-0.07080078125,0.923828125,0.5218505859375,-0.19775390625,-86.868896484375
2021-09-22 20:50:11.890584,-0.01220703125,0.056640625,1.19384765625,0.4119873046875,0.1263427734375,-86.77001953125
2021-09-22 20:50:11.900605,-0.0927734375,0.033203125,1.18701171875,0.2471923828125,0.3900146484375,-86.5118408203125
2021-09-22 20:50:11.910616,-0.078125,-0.05615234375,0.89453125,0.120849609375,0.68115234375,-86.1492919921875
2021-09-22 20:50:11.920540,-0.05810546875,-0.03857421875,1.0810546875,0.0164794921875,1.0052490234375,-85.7318115234375
2021-09-22 20:50:11.930517,-0.04736328125,-0.09912109375,1.30517578125,0.010986328125,1.29638671875,-85.2484130859375
2021-09-22 20:50:11.940400,-0.0224609375,-0.01416015625,1.07666015625,0.087890625,1.58203125,-84.6441650390625
2021-09-22 20:50:11.950092,-0.03955078125,-0.05419921875,0.97998046875,0.1812744140625,1.82373046875,-83.935546875
2021-09-22 20:50:11.960471,-0.06201171875,-0.04296875,1.05517578125,0.3021240234375,2.032470703125,-83.21044921875
2021-09-22 20:50:11.970351,-0.07470703125,0.00244140625,1.01416015625,0.4669189453125,2.21923828125,-82.5567626953125
2021-09-22 20:50:11.980283,-0.09521484375,-0.00732421875,0.9375,0.626220703125,2.4114990234375,-81.9854736328125
2021-09-22 20:50:11.990213,-0.1171875,-0.03076171875,1.03515625,0.780029296875,2.5927734375,-81.474609375
2021-09-22 20:50:12.000224,-0.06689453125,-0.0166015625,0.775390625,0.8953857421875,2.7081298828125,-81.0186767578125
2021-09-22 20:50:12.010207,-0.06005859375,0.01806640625,0.93359375,0.9393310546875,2.7740478515625,-80.57373046875
2021-09-22 20:50:12.020151,-0.03076171875,-0.01806640625,1.076171875,0.98876953125,2.7520751953125,-80.1123046875
2021-09-22 20:50:12.030027,-0.03759765625,0.04736328125,1.05908203125,1.0162353515625,2.6861572265625,-79.6673583984375
2021-09-22 20:50:12.040093,-0.10107421875,0.05322265625,1.04248046875,1.0601806640625,2.6202392578125,-79.266357421875
2021-09-22 20:50:12.049970,-0.0791015625,0.0634765625,0.95166015625,1.0711669921875,2.5213623046875,-78.958740234375
2021-09-22 20:50:12.059933,-0.033203125,0.0498046875,0.97607421875,1.0491943359375,2.3675537109375,-78.782958984375
2021-09-22 20:50:12.070015,0.0185546875,0.0556640625,1.00390625,1.0052490234375,2.17529296875,-78.7335205078125
2021-09-22 20:50:12.079975,0.09326171875,0.1416015625,1.01318359375,0.9832763671875,1.944580078125,-78.7774658203125
2021-09-22 20:50:12.089896,-0.02734375,0.0849609375,1.2607421875,0.9942626953125,1.746826171875,-78.9093017578125
2021-09-22 20:50:12.099810,-0.01806640625,-0.00244140625,1.09033203125,1.1041259765625,1.4447021484375,-79.1290283203125
2021-09-22 20:50:12.109934,0.07763671875,0.04443359375,0.97802734375,1.16455078125,1.175537109375,-79.442138671875
2021-09-22 20:50:12.119806,0.0986328125,0.119140625,0.92724609375,1.2139892578125,0.966796875,-79.815673828125
2021-09-22 20:50:12.129846,0.05078125,0.06640625,0.80810546875,1.2908935546875,0.758056640625,-80.1947021484375
2021-09-22 20:50:12.139717,-0.05322265625,0.0126953125,0.978515625,1.395263671875,0.5987548828125,-80.540771484375
2021-09-22 20:50:12.149563,-0.02294921875,0.11328125,0.98388671875,1.527099609375,0.4833984375,-80.8099365234375
2021-09-22 20:50:12.160266,0.052734375,0.09130859375,0.8974609375,1.5875244140625,0.3790283203125,-80.947265625
2021-09-22 20:50:12.169591,0.07080078125,0.0126953125,1.05322265625,1.593017578125,0.2691650390625,-80.9967041015625
2021-09-22 20:50:12.179489,0.05029296875,-0.0078125,0.8701171875,1.614990234375,0.164794921875,-80.9967041015625
2021-09-22 20:50:12.189499,0.0185546875,0.01611328125,0.908203125,1.6204833984375,0.054931640625,-81.01318359375
2021-09-22 20:50:12.199593,-0.04052734375,0.00830078125,0.9365234375,1.5765380859375,0.0439453125,-81.024169921875
2021-09-22 20:50:12.209485,-0.07177734375,-0.0166015625,1.052734375,1.5216064453125,0.1153564453125,-80.9747314453125
2021-09-22 20:50:12.219408,0.009765625,0.00341796875,1.0712890625,1.483154296875,0.1812744140625,-80.8758544921875
2021-09-22 20:50:12.229559,0.033203125,-0.03125,0.986328125,1.439208984375,0.252685546875,-80.7659912109375
2021-09-22 20:50:12.239444,-0.0146484375,0.0634765625,1.158203125,1.3623046875,0.362548828125,-80.6121826171875
2021-09-22 20:50:12.249462,-0.095703125,0.07763671875,1.236328125,1.1810302734375,0.41748046875,-80.343017578125
2021-09-22 20:50:12.259284,-0.1025390625,-0.02001953125,0.9091796875,0.9942626953125,0.50537109375,-80.013427734375
2021-09-22 20:50:12.269249,-0.0986328125,0.033203125,1.03564453125,0.802001953125,0.6427001953125,-79.6728515625
2021-09-22 20:50:12.279300,-0.0927734375,0.01513671875,1.3095703125,0.692138671875,0.7305908203125,-79.310302734375
2021-09-22 20:50:12.289243,-0.05322265625,0.0546875,1.0263671875,0.68115234375,0.8294677734375,-78.8653564453125
2021-09-22 20:50:12.299091,-0.05712890625,0.01953125,0.986328125,0.68115234375,0.87890625,-78.4039306640625
2021-09-22 20:50:12.309228,-0.0439453125,-0.01025390625,0.99462890625,0.714111328125,0.867919921875,-77.98095703125
2021-09-22 20:50:12.319268,-0.03662109375,0.03955078125,0.962890625,0.7965087890625,0.823974609375,-77.662353515625
2021-09-22 20:50:12.329197,-0.06689453125,-0.025390625,0.9296875,0.867919921875,0.791015625,-77.4591064453125
2021-09-22 20:50:12.339079,-0.06884765625,-0.00146484375,1.0380859375,0.977783203125,0.758056640625,-77.354736328125
2021-09-22 20:50:12.349107,-0.025390625,0.00732421875,0.7763671875,1.0711669921875,0.6866455078125,-77.3162841796875
2021-09-22 20:50:12.359044,-0.00341796875,0.0390625,0.9287109375,1.1041259765625,0.5877685546875,-77.3162841796875
2021-09-22 20:50:12.368956,0.0185546875,-0.03564453125,1.048828125,1.142578125,0.450439453125,-77.332763671875
2021-09-22 20:50:12.378831,0.02099609375,0.07177734375,1.103515625,1.1920166015625,0.2801513671875,-77.354736328125
2021-09-22 20:50:12.388917,-0.056640625,0.02685546875,1.0302734375,1.2139892578125,0.15380859375,-77.4151611328125
2021-09-22 20:50:12.398923,-0.0361328125,0.06201171875,1.00927734375,1.2030029296875,0.0439453125,-77.54150390625
2021-09-22 20:50:12.408799,0.0126953125,0.0625,0.95068359375,1.153564453125,-0.087890625,-77.7777099609375
2021-09-22 20:50:12.418717,0.0517578125,0.04736328125,0.9833984375,1.0601806640625,-0.2362060546875,-78.123779296875
2021-09-22 20:50:12.428648,0.1142578125,0.115234375,0.9912109375,0.9722900390625,-0.384521484375,-78.55224609375
2021-09-22 20:50:12.438709,-0.00537109375,0.10498046875,1.29052734375,0.9063720703125,-0.4669189453125,-79.03564453125
2021-09-22 20:50:12.448753,0.0,-0.0302734375,1.06201171875,0.9063720703125,-0.626220703125,-79.5849609375
2021-09-22 20:50:12.457966,0.1044921875,-0.01025390625,0.95361328125,0.81298828125,-0.7525634765625,-80.22216796875
2021-09-22 20:50:12.468500,0.125,0.07861328125,0.958984375,0.6976318359375,-0.7855224609375,-80.9033203125
2021-09-22 20:50:12.478419,0.07421875,0.0458984375,0.748046875,0.604248046875,-0.8074951171875,-81.573486328125
2021-09-22 20:50:12.488532,-0.0458984375,-0.0029296875,0.984375,0.516357421875,-0.7635498046875,-82.19970703125
2021-09-22 20:50:12.498387,-0.01953125,0.09033203125,0.955078125,0.450439453125,-0.6536865234375,-82.7435302734375
2021-09-22 20:50:12.508460,0.04833984375,0.07177734375,0.91552734375,0.274658203125,-0.5218505859375,-83.1610107421875
2021-09-22 20:50:12.518455,0.08154296875,-0.02392578125,1.046875,0.054931640625,-0.3790283203125,-83.4576416015625
2021-09-22 20:50:12.528366,0.0673828125,-0.04541015625,0.8583984375,-0.142822265625,-0.2581787109375,-83.69384765625
2021-09-22 20:50:12.538296,0.00927734375,-0.01611328125,0.9208984375,-0.32958984375,-0.120849609375,-83.9300537109375
2021-09-22 20:50:12.548352,-0.060546875,-0.03564453125,0.90380859375,-0.54931640625,0.1043701171875,-84.1552734375
2021-09-22 20:50:12.558372,-0.08203125,-0.05615234375,1.03662109375,-0.7470703125,0.4119873046875,-84.3035888671875
2021-09-22 20:50:12.568357,-0.01171875,-0.04638671875,1.05224609375,-0.87890625,0.703125,-84.3914794921875
2021-09-22 20:50:12.578201,0.021484375,-0.07421875,0.99169921875,-0.98876953125,0.9942626953125,-84.4573974609375
2021-09-22 20:50:12.588090,-0.0302734375,0.00830078125,1.13330078125,-1.0931396484375,1.318359375,-84.4793701171875
2021-09-22 20:50:12.598134,-0.130859375,0.021484375,1.25048828125,-1.2744140625,1.58203125,-84.3585205078125
2021-09-22 20:50:12.608104,-0.1083984375,-0.1103515625,0.90087890625,-1.4501953125,1.8621826171875,-84.1497802734375
2021-09-22 20:50:12.618019,-0.09521484375,-0.04150390625,1.06591796875,-1.614990234375,2.17529296875,-83.902587890625
2021-09-22 20:50:12.627966,-0.09912109375,-0.103515625,1.31396484375,-1.69189453125,2.43896484375,-83.6114501953125
2021-09-22 20:50:12.638012,-0.0810546875,-0.0302734375,1.06103515625,-1.6754150390625,2.7191162109375,-83.221435546875
2021-09-22 20:50:12.647938,-0.095703125,-0.05322265625,0.95556640625,-1.6424560546875,2.955322265625,-82.7545166015625
2021-09-22 20:50:12.658537,-0.09228515625,-0.044921875,1.03076171875,-1.5765380859375,3.131103515625,-82.2930908203125
2021-09-22 20:50:12.667772,-0.09033203125,-0.0185546875,0.9970703125,-1.4666748046875,3.262939453125,-81.9195556640625
2021-09-22 20:50:12.677972,-0.1396484375,-0.0703125,0.90771484375,-1.373291015625,3.4112548828125,-81.6448974609375
2021-09-22 20:50:12.687888,-0.12841796875,-0.068359375,1.04052734375,-1.2579345703125,3.526611328125,-81.45263671875
2021-09-22 20:50:12.697749,-0.091796875,-0.06005859375,0.791015625,-1.1700439453125,3.603515625,-81.3153076171875
2021-09-22 20:50:12.707654,-0.0771484375,-0.0390625,0.96337890625,-1.1480712890625,3.6199951171875,-81.2054443359375
2021-09-22 20:50:12.717848,-0.05029296875,-0.099609375,1.0673828125,-1.1260986328125,3.5870361328125,-81.0955810546875
2021-09-22 20:50:12.727644,-0.0439453125,-0.001953125,1.11865234375,-1.0931396484375,3.5101318359375,-80.9857177734375
2021-09-22 20:50:12.737644,-0.11474609375,-0.0205078125,1.04833984375,-1.0601806640625,3.4552001953125,-80.914306640625
2021-09-22 20:50:12.747482,-0.09130859375,0.00439453125,0.9912109375,-1.0546875,3.3892822265625,-80.9088134765625
2021-09-22 20:50:12.757584,-0.04541015625,0.00732421875,0.96630859375,-1.087646484375,3.284912109375,-81.0186767578125
2021-09-22 20:50:12.767505,0.0,0.0107421875,0.982421875,-1.1590576171875,3.1585693359375,-81.23291015625
2021-09-22 20:50:12.776747,0.05908203125,0.0654296875,1.041015625,-1.23046875,3.0047607421875,-81.54052734375
2021-09-22 20:50:12.787591,-0.0615234375,0.052734375,1.28857421875,-1.2799072265625,2.9058837890625,-81.9195556640625
2021-09-22 20:50:12.797508,-0.05517578125,-0.09033203125,1.09130859375,-1.2744140625,2.713623046875,-82.3699951171875
2021-09-22 20:50:12.807448,0.03369140625,-0.0419921875,0.97314453125,-1.3568115234375,2.5543212890625,-82.913818359375
2021-09-22 20:50:12.817329,0.048828125,-0.00537109375,0.96826171875,-1.4996337890625,2.4884033203125,-83.5125732421875
2021-09-22 20:50:12.827245,0.0263671875,-0.009765625,0.78564453125,-1.6314697265625,2.427978515625,-84.1058349609375
2021-09-22 20:50:12.837124,-0.0625,-0.0498046875,0.96533203125,-1.7303466796875,2.39501953125,-84.649658203125
2021-09-22 20:50:12.847401,-0.06201171875,0.05126953125,0.9599609375,-1.77978515625,2.4169921875,-85.111083984375
2021-09-22 20:50:12.857207,0.00048828125,0.04296875,0.8828125,-1.93359375,2.471923828125,-85.4296875
2021-09-22 20:50:12.867305,0.05859375,-0.05712890625,1.03173828125,-2.1368408203125,2.5323486328125,-85.616455078125
2021-09-22 20:50:12.877135,0.0400390625,-0.07763671875,0.85009765625,-2.3236083984375,2.57080078125,-85.7208251953125
2021-09-22 20:50:12.887075,-0.0361328125,-0.04443359375,0.9306640625,-2.493896484375,2.625732421875,-85.8251953125
2021-09-22 20:50:12.896997,-0.09033203125,-0.0615234375,0.8955078125,-2.7081298828125,2.7685546875,-85.9075927734375
2021-09-22 20:50:12.907016,-0.1103515625,-0.09619140625,1.00634765625,-2.9168701171875,2.9827880859375,-85.9075927734375
2021-09-22 20:50:12.917102,-0.056640625,-0.0224609375,1.01416015625,-3.021240234375,3.2080078125,-85.84716796875
2021-09-22 20:50:12.927011,0.076171875,-0.1318359375,1.2421875,-2.9718017578125,3.3123779296875,-85.7647705078125
2021-09-22 20:50:12.936911,0.05029296875,-0.00048828125,1.29443359375,-2.7630615234375,3.3123779296875,-85.638427734375
2021-09-22 20:50:12.947025,-0.10888671875,0.11474609375,1.45263671875,-2.48291015625,3.1915283203125,-85.3912353515625
2021-09-22 20:50:12.956726,-0.1328125,-0.08251953125,1.08447265625,-2.076416015625,3.0322265625,-85.0506591796875
2021-09-22 20:50:12.966926,-0.15673828125,-0.05322265625,1.03759765625,-1.6864013671875,2.8948974609375,-84.6441650390625
2021-09-22 20:50:12.976821,-0.0888671875,-0.06689453125,1.1328125,-1.3238525390625,2.735595703125,-84.166259765625
2021-09-22 20:50:12.986676,-0.06787109375,0.01904296875,1.158203125,-1.0162353515625,2.5982666015625,-83.6004638671875
2021-09-22 20:50:12.996774,-0.10498046875,-0.0537109375,1.00244140625,-0.8404541015625,2.449951171875,-82.9248046875
2021-09-22 20:50:13.006705,-0.07861328125,0.0078125,0.9951171875,-0.76904296875,2.28515625,-82.24365234375
2021-09-22 20:50:13.016582,-0.064453125,0.044921875,0.9638671875,-0.76904296875,2.098388671875,-81.639404296875
2021-09-22 20:50:13.026628,-0.10693359375,0.001953125,0.87939453125,-0.8349609375,1.9281005859375,-81.156005859375
2021-09-22 20:50:13.036694,-0.16162109375,-0.01318359375,0.8896484375,-0.9393310546875,1.790771484375,-80.7550048828125
2021-09-22 20:50:13.046543,-0.0556640625,-0.02734375,0.68798828125,-1.0931396484375,1.614990234375,-80.386962890625
2021-09-22 20:50:13.056500,-0.00732421875,-0.01953125,0.88134765625,-1.3128662109375,1.40625,-80.068359375
2021-09-22 20:50:13.066565,-0.00634765625,-0.09716796875,0.98291015625,-1.5380859375,1.175537109375,-79.7662353515625
2021-09-22 20:50:13.076476,-0.00244140625,-0.0205078125,0.99462890625,-1.73583984375,0.9228515625,-79.47509765625
2021-09-22 20:50:13.086525,-0.04736328125,-0.04345703125,1.017578125,-1.9171142578125,0.7086181640625,-79.25537109375
2021-09-22 20:50:13.096383,-0.02490234375,-0.0576171875,0.93701171875,-2.098388671875,0.494384765625,-79.156494140625
2021-09-22 20:50:13.106288,-0.00732421875,-0.0498046875,0.8798828125,-2.3016357421875,0.28564453125,-79.1949462890625
2021-09-22 20:50:13.116319,0.0341796875,-0.04296875,0.98583984375,-2.5103759765625,0.0823974609375,-79.365234375
2021-09-22 20:50:13.126260,0.1240234375,0.01708984375,0.990234375,-2.6806640625,-0.142822265625,-79.639892578125
2021-09-22 20:50:13.136255,-0.00927734375,-0.015625,1.2646484375,-2.8125,-0.296630859375,-80.0189208984375
2021-09-22 20:50:13.146388,-0.0283203125,-0.10205078125,1.11279296875,-2.845458984375,-0.516357421875,-80.496826171875
2021-09-22 20:50:13.156764,0.0498046875,-0.0859375,0.974609375,-2.92236328125,-0.648193359375,-81.090087890625
2021-09-22 20:50:13.165939,0.10400390625,-0.052734375,0.85107421875,-3.0267333984375,-0.670166015625,-81.76025390625
2021-09-22 20:50:13.176069,0.0712890625,-0.04052734375,0.85009765625,-3.109130859375,-0.6756591796875,-82.46337890625
2021-09-22 20:50:13.185990,-0.056640625,-0.107421875,0.908203125,-3.1256103515625,-0.5712890625,-83.133544921875
2021-09-22 20:50:13.196133,-0.06494140625,-0.0126953125,1.0,-3.1365966796875,-0.3570556640625,-83.7213134765625
2021-09-22 20:50:13.206060,-0.04345703125,-0.11376953125,0.74169921875,-3.2958984375,0.0,-84.17724609375
2021-09-22 20:50:13.215946,0.21630859375,-0.01025390625,1.2216796875,-3.2904052734375,0.2801513671875,-84.4793701171875
2021-09-22 20:50:13.225493,0.16552734375,-0.103515625,1.0341796875,-3.1585693359375,0.406494140625,-84.7540283203125
2021-09-22 20:50:13.235752,0.107421875,-0.12451171875,1.12060546875,-2.8179931640625,0.406494140625,-85.1055908203125
2021-09-22 20:50:13.245810,0.02783203125,-0.03369140625,0.91650390625,-2.362060546875,0.3570556640625,-85.45166015625
2021-09-22 20:50:13.255898,-0.00048828125,-0.037109375,0.9638671875,-1.900634765625,0.3790283203125,-85.7208251953125
2021-09-22 20:50:13.265948,0.00244140625,-0.0078125,1.0390625,-1.4227294921875,0.3900146484375,-85.8966064453125
2021-09-22 20:50:13.275832,-0.00732421875,-0.0556640625,1.0341796875,-0.9503173828125,0.3955078125,-85.989990234375
2021-09-22 20:50:13.285786,0.02978515625,-0.00537109375,1.0322265625,-0.5767822265625,0.406494140625,-85.9844970703125
2021-09-22 20:50:13.295649,0.01171875,0.1533203125,1.29345703125,-0.3240966796875,0.3460693359375,-85.8251953125
2021-09-22 20:50:13.305553,-0.0380859375,0.0,0.970703125,-0.054931640625,0.24169921875,-85.5120849609375
2021-09-22 20:50:13.315430,0.03076171875,-0.0078125,1.10546875,0.17578125,0.054931640625,-85.078125
2021-09-22 20:50:13.325615,-0.04638671875,0.1328125,1.1025390625,0.3900146484375,-0.0384521484375,-84.5562744140625
2021-09-22 20:50:13.335522,0.01806640625,0.125,1.3681640625,0.54931640625,-0.142822265625,-84.0069580078125
2021-09-22 20:50:13.345417,-0.08544921875,0.1728515625,0.8974609375,0.6646728515625,-0.1593017578125,-83.4136962890625
2021-09-22 20:50:13.355340,-0.00244140625,0.01513671875,0.93408203125,0.6646728515625,-0.2581787109375,-82.85888671875
2021-09-22 20:50:13.365470,0.00830078125,-0.02587890625,0.9326171875,0.626220703125,-0.4339599609375,-82.44140625
2021-09-22 20:50:13.375419,0.02978515625,-0.00732421875,0.81982421875,0.5712890625,-0.703125,-82.1722412109375
2021-09-22 20:50:13.385340,0.0634765625,0.0830078125,0.88330078125,0.538330078125,-1.0821533203125,-82.034912109375
2021-09-22 20:50:13.395222,-0.259765625,-0.1748046875,0.73876953125,0.4888916015625,-1.1370849609375,-81.89208984375
2021-09-22 20:50:13.405314,-0.16455078125,-0.01318359375,0.822265625,0.494384765625,-1.1810302734375,-81.5570068359375
2021-09-22 20:50:13.415216,-0.0458984375,-0.06787109375,0.68896484375,0.4229736328125,-1.0986328125,-81.112060546875
2021-09-22 20:50:13.425328,0.1376953125,-0.05126953125,1.0712890625,0.3955078125,-0.9722900390625,-80.7110595703125
2021-09-22 20:50:13.435305,0.0625,-0.0361328125,1.24462890625,0.3680419921875,-0.8349609375,-80.452880859375
2021-09-22 20:50:13.445161,0.12939453125,0.05810546875,1.27294921875,0.24169921875,-0.90087890625,-80.3485107421875
2021-09-22 20:50:13.455099,0.14501953125,0.181640625,1.30126953125,0.10986328125,-0.9503173828125,-80.3924560546875
2021-09-22 20:50:13.464997,0.20751953125,0.14013671875,1.57958984375,0.1043701171875,-0.8734130859375,-80.5352783203125
2021-09-22 20:50:13.474872,0.20751953125,0.14013671875,1.57958984375,0.098876953125,-0.7965087890625,-80.68359375
2021-09-22 20:50:13.484982,0.27587890625,0.23046875,1.43212890625,0.142822265625,-0.8624267578125,-80.9307861328125
2021-09-22 20:50:13.494797,0.1162109375,0.33740234375,1.33642578125,0.24169921875,-1.1590576171875,-81.2603759765625
2021-09-22 20:50:13.504893,-0.00537109375,0.13427734375,1.25390625,0.648193359375,-1.6314697265625,-81.6668701171875
2021-09-22 20:50:13.514772,-0.134765625,0.19384765625,0.8603515625,1.0162353515625,-2.1533203125,-82.11181640625
2021-09-22 20:50:13.524726,-0.0478515625,0.2333984375,0.2880859375,1.4447021484375,-2.61474609375,-82.5732421875
2021-09-22 20:50:13.534752,-0.4697265625,-0.03857421875,0.998046875,2.076416015625,-3.0487060546875,-83.023681640625
2021-09-22 20:50:13.544758,-0.2529296875,-0.2353515625,0.92138671875,2.274169921875,-3.1036376953125,-83.4906005859375
2021-09-22 20:50:13.554596,-0.36767578125,0.14794921875,0.29931640625,2.26318359375,-2.691650390625,-83.9190673828125
2021-09-22 20:50:13.564709,-0.22412109375,-0.05322265625,0.875,1.8292236328125,-2.0050048828125,-84.2376708984375
2021-09-22 20:50:13.574456,-0.0634765625,0.1591796875,0.13623046875,1.0546875,-1.2030029296875,-84.429931640625
2021-09-22 20:50:13.584737,-0.07470703125,0.3466796875,0.07275390625,0.2471923828125,-0.17578125,-84.6002197265625
2021-09-22 20:50:13.594610,0.38671875,0.02001953125,1.154296875,-0.0164794921875,0.7635498046875,-84.9078369140625
2021-09-22 20:50:13.604643,0.068359375,-0.236328125,1.67626953125,-0.1812744140625,1.197509765625,-85.4461669921875
2021-09-22 20:50:13.614367,-0.12890625,-0.34228515625,1.55712890625,-0.2197265625,1.0107421875,-86.1822509765625
2021-09-22 20:50:13.624445,0.04296875,-0.361328125,2.22314453125,0.0,0.845947265625,-87.000732421875
2021-09-22 20:50:13.634371,0.50390625,-0.3447265625,1.16259765625,0.087890625,1.0821533203125,-87.7532958984375
2021-09-22 20:50:13.644091,0.6767578125,-0.20849609375,0.8779296875,0.2197265625,1.680908203125,-88.1597900390625
2021-09-22 20:50:13.655254,0.39794921875,0.1337890625,0.41845703125,0.2911376953125,1.9171142578125,-88.2586669921875
2021-09-22 20:50:13.664483,0.1513671875,0.201171875,1.2216796875,0.692138671875,1.8731689453125,-88.143310546875
2021-09-22 20:50:13.674259,-0.21435546875,0.525390625,0.6533203125,0.9283447265625,1.8292236328125,-87.82470703125
2021-09-22 20:50:13.684152,0.15087890625,0.19140625,1.9833984375,1.58203125,2.230224609375,-87.20947265625
2021-09-22 20:50:13.694050,0.43310546875,-0.05615234375,0.90771484375,2.0599365234375,2.889404296875,-86.33056640625
2021-09-22 20:50:13.704116,0.34814453125,0.22802734375,0.8076171875,2.109375,3.087158203125,-85.4736328125
2021-09-22 20:50:13.714449,0.36962890625,-0.0439453125,0.703125,2.4334716796875,2.7630615234375,-84.79248046875
2021-09-22 20:50:13.724022,0.12109375,0.11962890625,0.7958984375,2.384033203125,2.04345703125,-84.3695068359375
2021-09-22 20:50:13.733949,-0.09375,0.2001953125,0.994140625,2.08740234375,1.3623046875,-84.2376708984375
2021-09-22 20:50:13.743846,-0.123046875,0.25634765625,0.2490234375,1.6259765625,0.626220703125,-84.320068359375
2021-09-22 20:50:13.754110,-0.59912109375,0.1806640625,1.3544921875,1.5765380859375,0.0439453125,-84.3804931640625
2021-09-22 20:50:13.763805,-0.294921875,-0.02001953125,1.48779296875,1.4501953125,-0.252685546875,-84.1937255859375
2021-09-22 20:50:13.773850,0.09912109375,0.0390625,0.54736328125,1.1810302734375,-0.2691650390625,-83.814697265625
2021-09-22 20:50:13.783766,0.0908203125,-0.22119140625,1.41357421875,1.219482421875,-0.1922607421875,-83.221435546875
2021-09-22 20:50:13.793837,0.0654296875,-0.458984375,-0.15673828125,1.219482421875,-0.3460693359375,-82.5347900390625
2021-09-22 20:50:13.803877,0.0166015625,-0.14306640625,0.73486328125,0.9393310546875,-0.5657958984375,-81.8756103515625
2021-09-22 20:50:13.813594,-0.0166015625,-0.130859375,1.01123046875,0.9613037109375,-0.6207275390625,-81.45263671875
2021-09-22 20:50:13.823538,0.05224609375,0.01171875,1.314453125,0.933837890625,-0.6317138671875,-81.375732421875
2021-09-22 20:50:13.833714,0.1962890625,0.341796875,1.6572265625,0.7196044921875,-0.7745361328125,-81.5570068359375
2021-09-22 20:50:13.843591,-0.00732421875,0.34521484375,2.23974609375,0.8074951171875,-0.9503173828125,-81.815185546875
2021-09-22 20:50:13.853690,-0.14306640625,0.09912109375,1.5478515625,1.0821533203125,-1.318359375,-82.100830078125
2021-09-22 20:50:13.863384,-0.11865234375,0.2880859375,1.1513671875,1.0711669921875,-1.669921875,-82.474365234375
2021-09-22 20:50:13.873513,-0.31201171875,0.1982421875,1.30712890625,1.3787841796875,-1.845703125,-82.9193115234375
2021-09-22 20:50:13.883379,-0.23681640625,0.1591796875,1.2451171875,1.4007568359375,-1.8731689453125,-83.3642578125
2021-09-22 20:50:13.893387,-0.41357421875,0.25634765625,0.51904296875,1.2689208984375,-1.746826171875,-83.6773681640625
2021-09-22 20:50:13.903502,-0.54150390625,0.1240234375,0.75634765625,1.1370849609375,-1.38427734375,-83.814697265625
2021-09-22 20:50:13.913340,-0.33203125,0.12109375,0.3427734375,0.87890625,-0.7305908203125,-83.814697265625
2021-09-22 20:50:13.923462,-0.103515625,0.18115234375,0.64111328125,0.4779052734375,0.2252197265625,-83.7213134765625
2021-09-22 20:50:13.933375,0.2578125,-0.130859375,0.37451171875,0.2801513671875,1.0052490234375,-83.64990234375
2021-09-22 20:50:13.943403,0.04150390625,-0.23486328125,1.14599609375,0.2197265625,1.329345703125,-83.7213134765625
2021-09-22 20:50:13.953349,-0.15625,-0.64599609375,0.8095703125,0.37353515625,1.1920166015625,-84.04541015625
2021-09-22 20:50:13.963344,-0.02783203125,-0.40966796875,1.6005859375,0.3460693359375,0.8953857421875,-84.649658203125
2021-09-22 20:50:13.973103,0.25537109375,-0.33740234375,1.439453125,0.2911376953125,0.791015625,-85.396728515625
2021-09-22 20:50:13.983006,0.56884765625,-0.42626953125,1.41064453125,0.472412109375,1.065673828125,-86.011962890625
2021-09-22 20:50:13.993254,0.43408203125,-0.20849609375,0.3427734375,0.428466796875,1.395263671875,-86.385498046875
2021-09-22 20:50:14.003375,0.15380859375,0.1240234375,0.84033203125,0.3955078125,1.395263671875,-86.5997314453125
2021-09-22 20:50:14.012962,-0.05712890625,0.21923828125,1.2626953125,0.6427001953125,1.1810302734375,-86.6876220703125
2021-09-22 20:50:14.023042,-0.12158203125,0.4189453125,1.57568359375,0.8514404296875,1.1260986328125,-86.55029296875
2021-09-22 20:50:14.032927,0.29638671875,0.126953125,1.1533203125,1.3458251953125,1.658935546875,-86.0943603515625
2021-09-22 20:50:14.042803,0.5234375,0.30419921875,0.55029296875,1.51611328125,2.098388671875,-85.462646484375
2021-09-22 20:50:14.052925,0.3544921875,-0.0986328125,0.30224609375,1.99951171875,2.252197265625,-84.7540283203125
2021-09-22 20:50:14.063012,0.2421875,0.064453125,1.06787109375,2.230224609375,2.0050048828125,-84.0509033203125
2021-09-22 20:50:14.072817,0.22119140625,0.16845703125,1.1123046875,2.3455810546875,1.702880859375,-83.56201171875
2021-09-22 20:50:14.082693,0.017578125,0.1591796875,0.7314453125,2.0928955078125,1.25244140625,-83.419189453125
2021-09-22 20:50:14.092654,-0.20166015625,0.2060546875,0.79248046875,1.834716796875,0.6427001953125,-83.485107421875
2021-09-22 20:50:14.102551,-0.583984375,-0.0185546875,1.326171875,1.845703125,0.1153564453125,-83.5015869140625
2021-09-22 20:50:14.112675,-0.37451171875,0.04541015625,1.36279296875,1.6259765625,-0.263671875,-83.309326171875
2021-09-22 20:50:14.122960,-0.15478515625,-0.05615234375,0.5400390625,1.5106201171875,-0.4010009765625,-82.90283203125
2021-09-22 20:50:14.132716,0.1435546875,-0.1328125,1.00439453125,1.29638671875,-0.4559326171875,-82.254638671875
2021-09-22 20:50:14.142466,0.1376953125,-0.30078125,-0.0966796875,1.2139892578125,-0.5657958984375,-81.5570068359375
2021-09-22 20:50:14.153369,0.0439453125,-0.2451171875,0.5537109375,1.1810302734375,-0.7086181640625,-80.9088134765625
2021-09-22 20:50:14.162434,0.00390625,-0.0263671875,0.96484375,1.087646484375,-0.791015625,-80.5133056640625
2021-09-22 20:50:14.172318,0.0849609375,0.0576171875,1.29248046875,1.087646484375,-0.85693359375,-80.474853515625
2021-09-22 20:50:14.182398,0.1884765625,0.26513671875,1.73828125,1.043701171875,-0.98876953125,-80.7000732421875
2021-09-22 20:50:14.192448,0.04150390625,0.46435546875,2.1552734375,1.1260986328125,-1.23046875,-80.980224609375
2021-09-22 20:50:14.202311,-0.12744140625,0.12353515625,1.64111328125,1.51611328125,-1.669921875,-81.243896484375
2021-09-22 20:50:14.212256,-0.30810546875,0.0205078125,1.146484375,1.702880859375,-2.142333984375,-81.573486328125
2021-09-22 20:50:14.222324,-0.2353515625,0.07958984375,1.29443359375,1.845703125,-2.3345947265625,-82.0184326171875
2021-09-22 20:50:14.232247,-0.30517578125,0.2314453125,0.919921875,1.834716796875,-2.1807861328125,-82.4798583984375
2021-09-22 20:50:14.242226,-0.357421875,0.2099609375,1.0009765625,1.7303466796875,-1.9171142578125,-82.8533935546875
2021-09-22 20:50:14.252259,-0.39111328125,0.2001953125,0.48388671875,1.47216796875,-1.4996337890625,-83.0291748046875
2021-09-22 20:50:14.262301,-0.322265625,0.037109375,0.11669921875,1.1590576171875,-0.81298828125,-83.0181884765625
2021-09-22 20:50:14.272240,-0.18701171875,0.10546875,0.07568359375,0.7086181640625,0.230712890625,-82.9412841796875
2021-09-22 20:50:14.282155,0.28662109375,-0.099609375,0.34375,0.450439453125,1.175537109375,-82.891845703125
2021-09-22 20:50:14.292477,0.1142578125,-0.248046875,1.00927734375,0.4010009765625,1.658935546875,-82.957763671875
2021-09-22 20:50:14.302112,-0.0986328125,-0.70361328125,1.07177734375,0.54931640625,1.4996337890625,-83.25439453125
2021-09-22 20:50:14.312179,-0.1875,-0.46240234375,1.45751953125,0.384521484375,1.0601806640625,-83.84765625
2021-09-22 20:50:14.322064,0.21142578125,-0.2412109375,1.7294921875,0.28564453125,0.8184814453125,-84.6002197265625
2021-09-22 20:50:14.331937,0.52587890625,-0.375,1.5341796875,0.4010009765625,1.0491943359375,-85.2374267578125
2021-09-22 20:50:14.341859,0.48583984375,-0.23876953125,0.4462890625,0.3570556640625,1.494140625,-85.594482421875
2021-09-22 20:50:14.352047,0.212890625,0.13720703125,0.6875,0.263671875,1.5765380859375,-85.792236328125
2021-09-22 20:50:14.361921,0.0380859375,0.15673828125,1.15478515625,0.5657958984375,1.3787841796875,-85.8746337890625
2021-09-22 20:50:14.371828,-0.115234375,0.44384765625,0.97900390625,0.7635498046875,1.2579345703125,-85.748291015625
2021-09-22 20:50:14.381750,0.23974609375,0.2119140625,1.48681640625,1.2689208984375,1.7633056640625,-85.3143310546875
2021-09-22 20:50:14.391620,0.49072265625,0.31982421875,0.7685546875,1.47216796875,2.3016357421875,-84.66064453125
2021-09-22 20:50:14.401680,0.34033203125,0.033203125,-0.04443359375,1.9500732421875,2.5433349609375,-83.9300537109375
2021-09-22 20:50:14.411900,0.271484375,0.01513671875,1.3271484375,2.26318359375,2.373046875,-83.21044921875
2021-09-22 20:50:14.421591,0.228515625,0.17626953125,1.2607421875,2.406005859375,2.08740234375,-82.6776123046875
2021-09-22 20:50:14.431546,0.046875,0.177734375,0.7734375,2.2137451171875,1.6754150390625,-82.5128173828125
2021-09-22 20:50:14.441460,-0.16259765625,0.05029296875,0.82421875,1.9500732421875,1.0986328125,-82.59521484375
2021-09-22 20:50:14.451326,-0.6630859375,-0.01416015625,2.24365234375,1.8072509765625,0.46142578125,-82.672119140625
2021-09-22 20:50:14.461853,-0.36474609375,-0.052734375,1.00146484375,1.7303466796875,0.0384521484375,-82.5018310546875
2021-09-22 20:50:14.471588,-0.03173828125,-0.05712890625,0.7255859375,1.461181640625,-0.1483154296875,-82.1612548828125
2021-09-22 20:50:14.481294,0.10693359375,-0.02783203125,0.98681640625,1.2908935546875,-0.1593017578125,-81.5899658203125
2021-09-22 20:50:14.491393,-0.0068359375,-0.25927734375,-0.37158203125,1.2359619140625,-0.318603515625,-80.947265625
2021-09-22 20:50:14.501460,0.1142578125,-0.384765625,0.64599609375,1.241455078125,-0.494384765625,-80.35400390625
2021-09-22 20:50:14.511360,0.0283203125,-0.12109375,1.02099609375,1.087646484375,-0.5877685546875,-79.9420166015625
2021-09-22 20:50:14.521331,0.09619140625,-0.03466796875,1.2998046875,1.12060546875,-0.6427001953125,-79.8211669921875
2021-09-22 20:50:14.531108,0.1435546875,0.2724609375,1.83837890625,1.0052490234375,-0.72509765625,-79.98046875
2021-09-22 20:50:14.541201,0.00341796875,0.4482421875,2.0322265625,1.0382080078125,-0.9393310546875,-80.2716064453125
2021-09-22 20:50:14.551113,-0.1337890625,0.1318359375,1.6279296875,1.3348388671875,-1.3238525390625,-80.5517578125
2021-09-22 20:50:14.560977,-0.103515625,0.32373046875,1.166015625,1.439208984375,-1.724853515625,-80.870361328125
2021-09-22 20:50:14.571062,-0.380859375,-0.02294921875,1.404296875,1.64794921875,-1.9390869140625,-81.298828125
2021-09-22 20:50:14.581092,-0.4140625,0.31396484375,1.65283203125,1.6094970703125,-1.8841552734375,-81.749267578125
2021-09-22 20:50:14.590928,-0.3955078125,0.2138671875,0.6416015625,1.5325927734375,-1.7138671875,-82.11181640625
2021-09-22 20:50:14.601051,-0.412109375,0.2099609375,0.4765625,1.3018798828125,-1.3238525390625,-82.2821044921875
2021-09-22 20:50:14.611108,-0.3095703125,0.04833984375,0.29736328125,1.021728515625,-0.670166015625,-82.2711181640625
2021-09-22 20:50:14.621051,-0.138671875,0.1767578125,0.32275390625,0.59326171875,0.296630859375,-82.166748046875
2021-09-22 20:50:14.631097,0.251953125,-0.15087890625,0.40087890625,0.384521484375,1.1480712890625,-82.078857421875
2021-09-22 20:50:14.641097,0.1171875,-0.2333984375,1.08251953125,0.318603515625,1.5545654296875,-82.122802734375
2021-09-22 20:50:14.651364,-0.1357421875,-0.6513671875,0.85205078125,0.450439453125,1.42822265625,-82.408447265625
2021-09-22 20:50:14.660765,-0.1005859375,-0.47998046875,1.59765625,0.4010009765625,1.0546875,-82.9852294921875
2021-09-22 20:50:14.670802,0.2353515625,-0.33837890625,1.5859375,0.3460693359375,0.90087890625,-83.726806640625
2021-09-22 20:50:14.680514,0.56689453125,-0.41552734375,1.43115234375,0.4833984375,1.175537109375,-84.35302734375
2021-09-22 20:50:14.690970,0.46240234375,-0.2470703125,0.447265625,0.46142578125,1.5655517578125,-84.7265625
2021-09-22 20:50:14.700755,0.1630859375,0.150390625,0.818359375,0.4010009765625,1.5875244140625,-84.9407958984375
2021-09-22 20:50:14.710485,-0.04248046875,0.17724609375,1.1318359375,0.6866455078125,1.3897705078125,-85.0506591796875
2021-09-22 20:50:14.720397,-0.1416015625,0.40625,1.42724609375,0.889892578125,1.318359375,-84.9298095703125
2021-09-22 20:50:14.730440,0.25341796875,0.15576171875,1.2861328125,1.4117431640625,1.878662109375,-84.48486328125
2021-09-22 20:50:14.740388,0.5205078125,0.3017578125,0.63134765625,1.6094970703125,2.3895263671875,-83.8421630859375
2021-09-22 20:50:14.750643,0.3955078125,-0.13525390625,0.32666015625,2.1258544921875,2.625732421875,-83.12255859375
2021-09-22 20:50:14.760625,0.216796875,0.15380859375,1.10693359375,2.3895263671875,2.4334716796875,-82.4139404296875
2021-09-22 20:50:14.770188,0.23779296875,0.201171875,1.17724609375,2.5213623046875,2.1533203125,-81.903076171875
2021-09-22 20:50:14.780317,0.03955078125,0.2060546875,0.7373046875,2.2906494140625,1.7138671875,-81.749267578125
2021-09-22 20:50:14.790183,-0.23828125,0.03955078125,1.01513671875,2.0489501953125,1.142578125,-81.815185546875
2021-09-22 20:50:14.800056,-0.6513671875,-0.0263671875,2.16064453125,1.8292236328125,0.472412109375,-81.881103515625
2021-09-22 20:50:14.810332,-0.34814453125,-0.07861328125,1.00390625,1.812744140625,0.0604248046875,-81.705322265625
2021-09-22 20:50:14.820304,-0.01025390625,-0.06884765625,0.78955078125,1.5106201171875,-0.1043701171875,-81.331787109375
2021-09-22 20:50:14.830007,0.0712890625,-0.00390625,0.92138671875,1.34033203125,-0.06591796875,-80.74951171875
2021-09-22 20:50:14.840088,0.001953125,-0.23291015625,-0.333984375,1.318359375,-0.2197265625,-80.0958251953125
2021-09-22 20:50:14.850238,0.12890625,-0.38232421875,0.65625,1.3128662109375,-0.4449462890625,-79.486083984375
2021-09-22 20:50:14.860054,0.04150390625,-0.09326171875,0.943359375,1.142578125,-0.5877685546875,-79.068603515625
2021-09-22 20:50:14.869906,0.09619140625,-0.048828125,1.3271484375,1.2469482421875,-0.6646728515625,-78.94775390625
2021-09-22 20:50:14.879766,0.15234375,0.2763671875,1.8212890625,1.1480712890625,-0.76904296875,-79.1070556640625
2021-09-22 20:50:14.889946,0.041015625,0.478515625,1.9384765625,1.175537109375,-1.0162353515625,-79.4036865234375
2021-09-22 20:50:14.899858,-0.125,0.13134765625,1.66845703125,1.56005859375,-1.439208984375,-79.7113037109375
2021-09-22 20:50:14.909746,-0.27197265625,0.037109375,1.07470703125,1.7303466796875,-1.93359375,-80.0518798828125
2021-09-22 20:50:14.919693,-0.25439453125,0.14013671875,1.19140625,1.878662109375,-2.1697998046875,-80.5023193359375
2021-09-22 20:50:14.929633,-0.37646484375,0.2646484375,1.09716796875,1.8621826171875,-2.054443359375,-80.96923828125
2021-09-22 20:50:14.939684,-0.38623046875,0.25390625,1.083984375,1.768798828125,-1.845703125,-81.36474609375
2021-09-22 20:50:14.949598,-0.4189453125,0.21533203125,0.49951171875,1.483154296875,-1.47216796875,-81.5625
2021-09-22 20:50:14.959708,-0.34130859375,0.04833984375,0.07568359375,1.1865234375,-0.8184814453125,-81.58447265625
2021-09-22 20:50:14.969784,-0.23095703125,0.04248046875,-0.18896484375,167.3272705078125,0.2032470703125,-81.529541015625
2021-09-22 20:50:14.979660,0.296875,0.001953125,0.35546875,0.3131103515625,-0.758056640625,-81.3372802734375
2021-09-22 20:50:14.989839,0.134765625,-0.1728515625,0.87548828125,0.2032470703125,-0.1922607421875,-81.3922119140625
2021-09-22 20:50:14.999392,-0.056640625,-0.6689453125,1.201171875,0.3955078125,-0.318603515625,-81.661376953125
2021-09-22 20:50:15.009501,-0.22607421875,-0.494140625,1.31005859375,0.28564453125,-0.7855224609375,-82.2161865234375
2021-09-22 20:50:15.019405,0.05078125,-0.18408203125,1.57861328125,0.098876953125,-1.1370849609375,-82.957763671875
2021-09-22 20:50:15.029304,0.43603515625,-0.28662109375,1.9453125,0.2471923828125,-1.0052490234375,-83.5894775390625
2021-09-22 20:50:15.039402,0.56103515625,-0.3115234375,0.5224609375,0.252685546875,-0.54931640625,-83.935546875
2021-09-22 20:50:15.049541,0.248046875,0.05908203125,0.6943359375,0.10986328125,-0.3350830078125,-84.111328125
2021-09-22 20:50:15.059246,0.11865234375,0.19091796875,1.24365234375,0.362548828125,-0.538330078125,-84.1607666015625
2021-09-22 20:50:15.069167,-0.1875,0.4150390625,0.42529296875,0.648193359375,-0.714111328125,-84.012451171875
