time,acc_x,acc_y,acc_z,roll,pitch,yaw
2021-09-22 21:23:24.252756,0.0859375,0.07177734375,0.97412109375,4.5318603515625,-4.713134765625,6.6357421875
2021-09-22 21:23:24.263603,0.08056640625,0.0751953125,0.9677734375,4.54833984375,-4.5703125,6.6632080078125
2021-09-22 21:23:24.273483,0.07861328125,0.08154296875,0.96044921875,4.5758056640625,-4.4384765625,6.6851806640625
2021-09-22 21:23:24.283468,0.07763671875,0.0859375,0.955078125,4.6087646484375,-4.317626953125,6.7071533203125
2021-09-22 21:23:24.293436,0.07275390625,0.080078125,0.95458984375,4.6417236328125,-4.2022705078125,6.7291259765625
2021-09-22 21:23:24.303720,0.0712890625,0.0751953125,0.96728515625,4.6636962890625,-4.1033935546875,6.756591796875
2021-09-22 21:23:24.313400,0.0712890625,0.0751953125,0.96728515625,4.669189453125,-4.010009765625,6.7840576171875
2021-09-22 21:23:24.323286,0.07421875,0.0693359375,0.97314453125,4.68017578125,-3.9166259765625,6.8115234375
2021-09-22 21:23:24.333238,0.07421875,0.06787109375,0.97412109375,4.68017578125,-3.8397216796875,6.844482421875
2021-09-22 21:23:24.343242,0.07275390625,0.0703125,0.9755859375,4.669189453125,-3.779296875,6.87744140625
2021-09-22 21:23:24.353475,0.0693359375,0.07470703125,0.98046875,4.647216796875,-3.724365234375,6.9049072265625
2021-09-22 21:23:24.363213,0.06396484375,0.07568359375,0.98046875,4.6142578125,-3.6859130859375,6.9378662109375
2021-09-22 21:23:24.373131,0.0693359375,0.06787109375,0.98291015625,4.5703125,-3.6529541015625,6.9708251953125
2021-09-22 21:23:24.383092,0.07958984375,0.05908203125,0.9921875,4.4989013671875,-3.6309814453125,7.00927734375
2021-09-22 21:23:24.393060,0.08642578125,0.05322265625,0.99853515625,4.41650390625,-3.62548828125,7.042236328125
2021-09-22 21:23:24.403186,0.08837890625,0.044921875,1.001953125,4.32861328125,-3.636474609375,7.0697021484375
2021-09-22 21:23:24.413035,0.08837890625,0.0439453125,1.0,4.2352294921875,-3.6474609375,7.09716796875
2021-09-22 21:23:24.423004,0.08740234375,0.048828125,0.9990234375,4.141845703125,-3.66943359375,7.1136474609375
2021-09-22 21:23:24.433004,0.08447265625,0.0576171875,0.99072265625,4.0594482421875,-3.6968994140625,7.1246337890625
2021-09-22 21:23:24.442954,0.0791015625,0.06689453125,0.98876953125,3.9825439453125,-3.7298583984375,7.1356201171875
2021-09-22 21:23:24.452854,0.07373046875,0.06982421875,0.98876953125,3.900146484375,-3.7628173828125,7.1466064453125
2021-09-22 21:23:24.462789,0.07568359375,0.06494140625,0.9970703125,3.8232421875,-3.7957763671875,7.1630859375
2021-09-22 21:23:24.472751,0.08203125,0.056640625,1.0009765625,3.7353515625,-3.834228515625,7.18505859375
2021-09-22 21:23:24.482676,0.08642578125,0.05078125,0.9921875,3.6419677734375,-3.878173828125,7.2125244140625
2021-09-22 21:23:24.492751,0.08544921875,0.052734375,0.99267578125,3.548583984375,-3.9276123046875,7.2454833984375
2021-09-22 21:23:24.502649,0.0810546875,0.0546875,0.986328125,3.4661865234375,-3.97705078125,7.27294921875
2021-09-22 21:23:24.512586,0.07861328125,0.05615234375,0.98388671875,3.394775390625,-4.0264892578125,7.305908203125
2021-09-22 21:23:24.522548,0.0791015625,0.0556640625,0.9833984375,3.3343505859375,-4.0704345703125,7.3388671875
2021-09-22 21:23:24.532495,0.08447265625,0.04736328125,0.99365234375,3.2794189453125,-4.1143798828125,7.371826171875
2021-09-22 21:23:24.543258,0.0869140625,0.04541015625,1.00146484375,3.240966796875,-4.15283203125,7.40478515625
2021-09-22 21:23:24.553135,0.08544921875,0.048828125,0.99609375,3.2244873046875,-4.1912841796875,7.437744140625
2021-09-22 21:23:24.563188,0.08154296875,0.048828125,0.998046875,3.22998046875,-4.2242431640625,7.4652099609375
2021-09-22 21:23:24.573020,0.0771484375,0.0478515625,0.99169921875,3.2684326171875,-4.2462158203125,7.4871826171875
2021-09-22 21:23:24.583048,0.076171875,0.0498046875,0.98291015625,3.3233642578125,-4.2626953125,7.5091552734375
2021-09-22 21:23:24.592639,0.0751953125,0.05126953125,0.97119140625,3.3892822265625,-4.273681640625,7.525634765625
2021-09-22 21:23:24.602422,0.0771484375,0.0556640625,0.97119140625,3.4716796875,-4.2791748046875,7.547607421875
2021-09-22 21:23:24.612366,0.07861328125,0.0595703125,0.98095703125,3.5595703125,-4.2791748046875,7.569580078125
2021-09-22 21:23:24.622246,0.08056640625,0.0673828125,0.98779296875,3.6474609375,-4.2791748046875,7.591552734375
2021-09-22 21:23:24.632237,0.08447265625,0.07666015625,0.9931640625,3.7408447265625,-4.273681640625,7.613525390625
2021-09-22 21:23:24.642199,0.08447265625,0.0810546875,0.99658203125,3.834228515625,-4.2626953125,7.6300048828125
2021-09-22 21:23:24.652129,0.08154296875,0.07666015625,0.9970703125,3.93310546875,-4.2462158203125,7.646484375
2021-09-22 21:23:24.662838,0.078125,0.07275390625,0.9931640625,4.02099609375,-4.229736328125,7.6519775390625
2021-09-22 21:23:24.672044,0.0732421875,0.06689453125,0.99169921875,4.1033935546875,-4.2022705078125,7.6629638671875
2021-09-22 21:23:24.682028,0.07373046875,0.06640625,0.99267578125,4.1748046875,-4.1693115234375,7.66845703125
2021-09-22 21:23:24.692082,0.07421875,0.0673828125,0.99609375,4.24072265625,-4.141845703125,7.6739501953125
2021-09-22 21:23:24.702010,0.07373046875,0.06640625,0.99365234375,4.295654296875,-4.1033935546875,7.679443359375
2021-09-22 21:23:24.711963,0.07177734375,0.06884765625,0.990234375,4.339599609375,-4.0704345703125,7.6849365234375
2021-09-22 21:23:24.721966,0.06494140625,0.07275390625,0.98583984375,4.3670654296875,-4.0374755859375,7.6904296875
2021-09-22 21:23:24.731824,0.06103515625,0.0771484375,0.9814453125,4.3890380859375,-3.9990234375,7.701416015625
2021-09-22 21:23:24.741908,0.05908203125,0.078125,0.97802734375,4.3890380859375,-3.966064453125,7.7178955078125
2021-09-22 21:23:24.751858,0.0595703125,0.07470703125,0.9814453125,4.3670654296875,-3.93310546875,7.7398681640625
2021-09-22 21:23:24.761809,0.0615234375,0.06591796875,0.98876953125,4.3341064453125,-3.900146484375,7.7728271484375
2021-09-22 21:23:24.771712,0.0634765625,0.064453125,0.9931640625,4.28466796875,-3.878173828125,7.8057861328125
2021-09-22 21:23:24.781674,0.06103515625,0.06494140625,0.99267578125,4.2242431640625,-3.856201171875,7.8497314453125
2021-09-22 21:23:24.791660,0.0615234375,0.06787109375,0.9892578125,4.163818359375,-3.8397216796875,7.8936767578125
2021-09-22 21:23:24.801589,0.06201171875,0.0712890625,0.98876953125,4.1033935546875,-3.834228515625,7.943115234375
2021-09-22 21:23:24.811545,0.06396484375,0.0771484375,0.984375,4.0484619140625,-3.834228515625,7.998046875
2021-09-22 21:23:24.821708,0.06884765625,0.08154296875,0.9853515625,3.9990234375,-3.8397216796875,8.052978515625
2021-09-22 21:23:24.831530,0.0732421875,0.08642578125,0.98291015625,3.955078125,-3.8507080078125,8.1024169921875
2021-09-22 21:23:24.841463,0.07470703125,0.08642578125,0.98388671875,3.9276123046875,-3.8726806640625,8.15185546875
2021-09-22 21:23:24.851348,0.07568359375,0.076171875,0.9873046875,3.9111328125,-3.8946533203125,8.19580078125
2021-09-22 21:23:24.861404,0.0751953125,0.06982421875,0.98876953125,3.9056396484375,-3.9276123046875,8.2342529296875
2021-09-22 21:23:24.871314,0.07763671875,0.0751953125,0.98876953125,3.9056396484375,-3.966064453125,8.2672119140625
2021-09-22 21:23:24.881299,0.076171875,0.07568359375,0.986328125,3.9276123046875,-4.0045166015625,8.2891845703125
2021-09-22 21:23:24.891304,0.0732421875,0.0751953125,0.98583984375,3.9605712890625,-4.053955078125,8.3111572265625
2021-09-22 21:23:24.901149,0.072265625,0.07421875,0.98583984375,3.9990234375,-4.10888671875,8.3331298828125
2021-09-22 21:23:24.911330,0.07373046875,0.0703125,0.9765625,4.04296875,-4.1693115234375,8.3441162109375
2021-09-22 21:23:24.921245,0.07470703125,0.07080078125,0.974609375,4.0869140625,-4.24072265625,8.3551025390625
2021-09-22 21:23:24.931082,0.07568359375,0.0703125,0.97119140625,4.1363525390625,-4.3121337890625,8.3660888671875
2021-09-22 21:23:24.941097,0.0751953125,0.0693359375,0.97119140625,4.1802978515625,-4.4000244140625,8.37158203125
2021-09-22 21:23:24.951031,0.07470703125,0.0703125,0.9697265625,4.2242431640625,-4.4879150390625,8.3770751953125
2021-09-22 21:23:24.960978,0.0703125,0.07275390625,0.97216796875,4.273681640625,-4.581298828125,8.3770751953125
2021-09-22 21:23:24.970965,0.0703125,0.07421875,0.97900390625,4.3231201171875,-4.68017578125,8.3770751953125
2021-09-22 21:23:24.980852,0.072265625,0.07666015625,0.9794921875,4.3780517578125,-4.779052734375,8.37158203125
2021-09-22 21:23:24.990995,0.0732421875,0.07958984375,0.9833984375,4.4384765625,-4.8834228515625,8.3660888671875
2021-09-22 21:23:25.000901,0.0791015625,0.08349609375,0.98486328125,4.5098876953125,-4.9932861328125,8.3551025390625
2021-09-22 21:23:25.010849,0.07958984375,0.08447265625,0.98486328125,4.5977783203125,-5.108642578125,8.3441162109375
2021-09-22 21:23:25.020805,0.0791015625,0.0888671875,0.97998046875,4.691162109375,-5.2239990234375,8.3221435546875
2021-09-22 21:23:25.030757,0.0830078125,0.09228515625,0.98046875,4.7955322265625,-5.33935546875,8.294677734375
2021-09-22 21:23:25.040679,0.08203125,0.09521484375,0.98046875,4.89990234375,-5.4547119140625,8.2672119140625
2021-09-22 21:23:25.050696,0.08349609375,0.09326171875,0.98583984375,5.009765625,-5.570068359375,8.2342529296875
2021-09-22 21:23:25.060582,0.08837890625,0.0927734375,0.98779296875,5.1141357421875,-5.6854248046875,8.2012939453125
2021-09-22 21:23:25.070416,0.091796875,0.09130859375,0.98291015625,5.218505859375,-5.80078125,8.1683349609375
2021-09-22 21:23:25.080376,0.0927734375,0.08740234375,0.98583984375,5.3173828125,-5.91064453125,8.1298828125
2021-09-22 21:23:25.090340,0.09228515625,0.0830078125,0.98291015625,5.416259765625,-6.0205078125,8.0914306640625
2021-09-22 21:23:25.100489,0.09130859375,0.08056640625,0.9814453125,5.504150390625,-6.13037109375,8.0474853515625
2021-09-22 21:23:25.110426,0.0947265625,0.083984375,0.98291015625,5.5810546875,-6.229248046875,8.009033203125
2021-09-22 21:23:25.120316,0.09619140625,0.08349609375,0.986328125,5.6524658203125,-6.328125,7.9705810546875
2021-09-22 21:23:25.130243,0.09716796875,0.0859375,0.982421875,5.7073974609375,-6.4215087890625,7.9376220703125
2021-09-22 21:23:25.140222,0.09716796875,0.09130859375,0.97900390625,5.7513427734375,-6.5093994140625,7.9046630859375
2021-09-22 21:23:25.150186,0.1015625,0.1015625,0.98291015625,5.7733154296875,-6.591796875,7.8826904296875
2021-09-22 21:23:25.160894,0.1083984375,0.10546875,0.98291015625,5.7843017578125,-6.668701171875,7.8607177734375
2021-09-22 21:23:25.170207,0.11376953125,0.1025390625,0.98095703125,5.7843017578125,-6.74560546875,7.8497314453125
2021-09-22 21:23:25.180283,0.1162109375,0.09619140625,0.9892578125,5.7733154296875,-6.8170166015625,7.833251953125
2021-09-22 21:23:25.190021,0.12109375,0.09033203125,0.994140625,5.7513427734375,-6.87744140625,7.822265625
2021-09-22 21:23:25.199982,0.123046875,0.087890625,0.98974609375,5.7293701171875,-6.932373046875,7.811279296875
2021-09-22 21:23:25.210024,0.1201171875,0.09375,0.9873046875,5.7073974609375,-6.976318359375,7.789306640625
2021-09-22 21:23:25.219888,0.12060546875,0.10400390625,0.99072265625,5.701904296875,-7.00927734375,7.767333984375
2021-09-22 21:23:25.230165,0.12060546875,0.109375,0.9951171875,5.701904296875,-7.0257568359375,7.745361328125
2021-09-22 21:23:25.239958,0.12353515625,0.10546875,0.99365234375,5.712890625,-7.0367431640625,7.7178955078125
2021-09-22 21:23:25.249856,0.125,0.099609375,1.001953125,5.723876953125,-7.03125,7.6904296875
2021-09-22 21:23:25.259752,0.12841796875,0.091796875,1.00244140625,5.745849609375,-7.0147705078125,7.6629638671875
2021-09-22 21:23:25.269722,0.12939453125,0.0888671875,1.00244140625,5.7733154296875,-6.9873046875,7.62451171875
2021-09-22 21:23:25.279650,0.12451171875,0.0908203125,1.00244140625,5.811767578125,-6.9488525390625,7.58056640625
2021-09-22 21:23:25.289593,0.11962890625,0.09423828125,0.9990234375,5.8612060546875,-6.8994140625,7.53662109375
2021-09-22 21:23:25.299995,0.11767578125,0.1044921875,0.9951171875,5.9161376953125,-6.8389892578125,7.4871826171875
2021-09-22 21:23:25.309677,0.1162109375,0.107421875,0.994140625,5.965576171875,-6.7620849609375,7.437744140625
2021-09-22 21:23:25.319558,0.12060546875,0.10546875,0.99560546875,6.009521484375,-6.6851806640625,7.393798828125
2021-09-22 21:23:25.329488,0.12255859375,0.10009765625,0.998046875,6.031494140625,-6.5972900390625,7.3443603515625
2021-09-22 21:23:25.339455,0.1220703125,0.09228515625,0.9951171875,6.04248046875,-6.50390625,7.3004150390625
2021-09-22 21:23:25.349374,0.12255859375,0.09033203125,0.994140625,6.031494140625,-6.405029296875,7.2509765625
2021-09-22 21:23:25.359421,0.119140625,0.0927734375,0.99072265625,6.0150146484375,-6.30615234375,7.2015380859375
2021-09-22 21:23:25.369680,0.111328125,0.09228515625,0.98974609375,5.9930419921875,-6.2017822265625,7.152099609375
2021-09-22 21:23:25.379381,0.10302734375,0.09326171875,0.990234375,5.965576171875,-6.08642578125,7.108154296875
2021-09-22 21:23:25.389229,0.1015625,0.09716796875,0.98828125,5.9271240234375,-5.9710693359375,7.064208984375
2021-09-22 21:23:25.399202,0.1005859375,0.1015625,0.9853515625,5.8831787109375,-5.8502197265625,7.0257568359375
2021-09-22 21:23:25.409156,0.0986328125,0.10400390625,0.97705078125,5.8392333984375,-5.73486328125,6.998291015625
2021-09-22 21:23:25.419104,0.103515625,0.10546875,0.98193359375,5.789794921875,-5.6195068359375,6.9708251953125
2021-09-22 21:23:25.429204,0.10888671875,0.10693359375,0.98291015625,5.73486328125,-5.5096435546875,6.954345703125
2021-09-22 21:23:25.439147,0.10888671875,0.10205078125,0.98388671875,5.6854248046875,-5.3997802734375,6.9378662109375
2021-09-22 21:23:25.449137,0.10693359375,0.09912109375,0.9794921875,5.635986328125,-5.29541015625,6.92138671875
2021-09-22 21:23:25.459016,0.10595703125,0.09912109375,0.98095703125,5.5865478515625,-5.1910400390625,6.910400390625
2021-09-22 21:23:25.468960,0.10693359375,0.1044921875,0.9794921875,5.5426025390625,-5.0921630859375,6.9049072265625
2021-09-22 21:23:25.478930,0.10205078125,0.11181640625,0.97412109375,5.4986572265625,-4.98779296875,6.9049072265625
2021-09-22 21:23:25.488861,0.10205078125,0.1142578125,0.9775390625,5.460205078125,-4.888916015625,6.9049072265625
2021-09-22 21:23:25.499057,0.10302734375,0.11279296875,0.97802734375,5.4217529296875,-4.7900390625,6.910400390625
2021-09-22 21:23:25.508923,0.1005859375,0.10546875,0.978515625,5.38330078125,-4.691162109375,6.92138671875
2021-09-22 21:23:25.518809,0.09912109375,0.10400390625,0.97216796875,5.3448486328125,-4.5867919921875,6.932373046875
2021-09-22 21:23:25.528762,0.0927734375,0.10302734375,0.97119140625,5.3118896484375,-4.4879150390625,6.9378662109375
2021-09-22 21:23:25.538718,0.0849609375,0.10009765625,0.962890625,5.2899169921875,-4.3890380859375,6.943359375
2021-09-22 21:23:25.548663,0.080078125,0.09765625,0.95703125,5.2734375,-4.2901611328125,6.9488525390625
2021-09-22 21:23:25.558622,0.080078125,0.091796875,0.9580078125,5.2569580078125,-4.185791015625,6.954345703125
2021-09-22 21:23:25.568982,0.08642578125,0.0869140625,0.955078125,5.2459716796875,-4.0869140625,6.9598388671875
2021-09-22 21:23:25.578692,0.08544921875,0.08447265625,0.9521484375,5.2349853515625,-3.9990234375,6.96533203125
2021-09-22 21:23:25.588568,0.0791015625,0.08935546875,0.951171875,5.2294921875,-3.9111328125,6.9708251953125
2021-09-22 21:23:25.598514,0.07373046875,0.09228515625,0.951171875,5.218505859375,-3.8232421875,6.976318359375
2021-09-22 21:23:25.608540,0.068359375,0.09521484375,0.951171875,5.2130126953125,-3.7408447265625,6.9818115234375
2021-09-22 21:23:25.618463,0.06396484375,0.0927734375,0.95361328125,5.196533203125,-3.658447265625,6.9927978515625
2021-09-22 21:23:25.628401,0.064453125,0.08935546875,0.9580078125,5.174560546875,-3.5870361328125,7.00927734375
2021-09-22 21:23:25.638709,0.06591796875,0.0810546875,0.95947265625,5.1361083984375,-3.5211181640625,7.0257568359375
2021-09-22 21:23:25.648389,0.06982421875,0.0810546875,0.9599609375,5.0921630859375,-3.4661865234375,7.05322265625
2021-09-22 21:23:25.658892,0.0673828125,0.08740234375,0.9560546875,5.0537109375,-3.4222412109375,7.0751953125
2021-09-22 21:23:25.668209,0.05908203125,0.09619140625,0.96240234375,5.0152587890625,-3.3837890625,7.1026611328125
2021-09-22 21:23:25.678239,0.04931640625,0.10498046875,0.96923828125,4.98779296875,-3.3453369140625,7.1356201171875
2021-09-22 21:23:25.688119,0.048828125,0.10302734375,0.978515625,4.9658203125,-3.3123779296875,7.1685791015625
2021-09-22 21:23:25.698332,0.05419921875,0.09814453125,0.9931640625,4.9493408203125,-3.284912109375,7.20703125
2021-09-22 21:23:25.708373,0.0634765625,0.08544921875,1.0009765625,4.932861328125,-3.2684326171875,7.2509765625
2021-09-22 21:23:25.718154,0.06884765625,0.0751953125,1.00390625,4.921875,-3.262939453125,7.294921875
2021-09-22 21:23:25.728166,0.07177734375,0.0771484375,1.0009765625,4.9163818359375,-3.2684326171875,7.3388671875
2021-09-22 21:23:25.738032,0.06787109375,0.0859375,0.99072265625,4.932861328125,-3.27392578125,7.3773193359375
2021-09-22 21:23:25.747950,0.06103515625,0.09326171875,0.9794921875,4.9603271484375,-3.284912109375,7.4102783203125
2021-09-22 21:23:25.757934,0.052734375,0.09033203125,0.97119140625,4.9932861328125,-3.2904052734375,7.4432373046875
2021-09-22 21:23:25.768238,0.0498046875,0.0712890625,0.970703125,5.0262451171875,-3.2958984375,7.481689453125
2021-09-22 21:23:25.777968,0.05859375,0.05029296875,0.9755859375,5.03173828125,-3.306884765625,7.5201416015625
2021-09-22 21:23:25.787778,0.07080078125,0.0439453125,0.97314453125,5.0262451171875,-3.31787109375,7.5640869140625
2021-09-22 21:23:25.797782,0.07861328125,0.04638671875,0.97802734375,5.009765625,-3.3453369140625,7.6080322265625
2021-09-22 21:23:25.807806,0.08056640625,0.052734375,0.98291015625,5.0042724609375,-3.372802734375,7.646484375
2021-09-22 21:23:25.817682,0.080078125,0.064453125,0.9794921875,5.0042724609375,-3.4002685546875,7.679443359375
2021-09-22 21:23:25.827745,0.07861328125,0.0771484375,0.98388671875,5.0262451171875,-3.427734375,7.701416015625
2021-09-22 21:23:25.837902,0.07470703125,0.08154296875,0.98876953125,5.0592041015625,-3.4442138671875,7.71240234375
2021-09-22 21:23:25.847678,0.07763671875,0.0908203125,0.9892578125,5.108642578125,-3.460693359375,7.7178955078125
2021-09-22 21:23:25.857565,0.0771484375,0.09619140625,0.99755859375,5.174560546875,-3.4716796875,7.71240234375
2021-09-22 21:23:25.867550,0.072265625,0.09716796875,0.9990234375,5.25146484375,-3.4771728515625,7.6959228515625
2021-09-22 21:23:25.877499,0.068359375,0.1025390625,0.9990234375,5.350341796875,-3.4771728515625,7.66845703125
2021-09-22 21:23:25.887468,0.06591796875,0.11181640625,0.9912109375,5.460205078125,-3.4661865234375,7.6300048828125
2021-09-22 21:23:25.897482,0.0615234375,0.1103515625,0.9970703125,5.592041015625,-3.4552001953125,7.5860595703125
2021-09-22 21:23:25.908050,0.05615234375,0.10546875,0.9951171875,5.7293701171875,-3.438720703125,7.5311279296875
2021-09-22 21:23:25.917937,0.05029296875,0.1015625,0.9970703125,5.8612060546875,-3.416748046875,7.4761962890625
2021-09-22 21:23:25.927985,0.04296875,0.107421875,0.9951171875,5.99853515625,-3.394775390625,7.415771484375
2021-09-22 21:23:25.937818,0.03515625,0.1162109375,0.99462890625,6.1248779296875,-3.372802734375,7.36083984375
2021-09-22 21:23:25.947807,0.025390625,0.12255859375,0.99609375,6.251220703125,-3.3453369140625,7.3114013671875
2021-09-22 21:23:25.957767,0.0185546875,0.12158203125,1.0,6.361083984375,-3.3233642578125,7.2674560546875
2021-09-22 21:23:25.967694,0.01953125,0.11865234375,1.013671875,6.448974609375,-3.3013916015625,7.2344970703125
2021-09-22 21:23:25.978235,0.015625,0.11279296875,1.0166015625,6.5203857421875,-3.2958984375,7.2125244140625
2021-09-22 21:23:25.987535,0.0146484375,0.11083984375,1.02392578125,6.5753173828125,-3.2904052734375,7.20703125
2021-09-22 21:23:25.997651,0.009765625,0.111328125,1.025390625,6.61376953125,-3.3013916015625,7.2125244140625
2021-09-22 21:23:26.007520,0.00927734375,0.1171875,1.02392578125,6.6412353515625,-3.3233642578125,7.22900390625
2021-09-22 21:23:26.017469,0.01416015625,0.13427734375,1.017578125,6.65771484375,-3.350830078125,7.2564697265625
2021-09-22 21:23:26.027543,0.01904296875,0.1416015625,1.01318359375,6.668701171875,-3.394775390625,7.305908203125
2021-09-22 21:23:26.037496,0.029296875,0.13720703125,1.0087890625,6.6632080078125,-3.44970703125,7.36083984375
2021-09-22 21:23:26.047484,0.0380859375,0.12060546875,1.00927734375,6.624755859375,-3.5211181640625,7.437744140625
2021-09-22 21:23:26.063454,0.04638671875,0.09765625,1.01025390625,6.5533447265625,-3.6090087890625,7.5146484375
2021-09-22 21:23:26.067239,0.05126953125,0.0830078125,1.0068359375,6.4544677734375,-3.7078857421875,7.6025390625
2021-09-22 21:23:26.077398,0.05224609375,0.08154296875,0.99462890625,6.3336181640625,-3.8177490234375,7.6904296875
2021-09-22 21:23:26.087236,0.0439453125,0.0888671875,0.9892578125,6.1962890625,-3.9276123046875,7.7838134765625
2021-09-22 21:23:26.097204,0.03857421875,0.09326171875,0.984375,6.053466796875,-4.0374755859375,7.877197265625
2021-09-22 21:23:26.107161,0.04150390625,0.0947265625,0.98046875,5.899658203125,-4.15283203125,7.9705810546875
2021-09-22 21:23:26.117287,0.048828125,0.08154296875,0.9814453125,5.7403564453125,-4.2681884765625,8.0694580078125
2021-09-22 21:23:26.126945,0.05712890625,0.06884765625,0.9873046875,5.5645751953125,-4.3890380859375,8.1683349609375
2021-09-22 21:23:26.136761,0.06982421875,0.0615234375,0.9873046875,5.3887939453125,-4.5098876953125,8.2672119140625
2021-09-22 21:23:26.146681,0.0791015625,0.06298828125,0.98828125,5.218505859375,-4.6417236328125,8.3551025390625
2021-09-22 21:23:26.157298,0.08203125,0.07763671875,0.982421875,5.07568359375,-4.76806640625,8.4320068359375
2021-09-22 21:23:26.166598,0.07666015625,0.0810546875,0.9853515625,4.9658203125,-4.8944091796875,8.492431640625
2021-09-22 21:23:26.176652,0.080078125,0.09033203125,0.97265625,4.8834228515625,-5.009765625,8.536376953125
2021-09-22 21:23:26.186427,0.0810546875,0.08251953125,0.97412109375,4.8284912109375,-5.11962890625,8.5693359375
2021-09-22 21:23:26.196444,0.08544921875,0.0703125,0.97119140625,4.7845458984375,-5.218505859375,8.5858154296875
2021-09-22 21:23:26.206466,0.0947265625,0.06884765625,0.9765625,4.757080078125,-5.3173828125,8.580322265625
2021-09-22 21:23:26.216429,0.1025390625,0.080078125,0.96484375,4.7515869140625,-5.4052734375,8.558349609375
2021-09-22 21:23:26.226381,0.10546875,0.0888671875,0.96826171875,4.779052734375,-5.4876708984375,8.514404296875
2021-09-22 21:23:26.236905,0.10107421875,0.09814453125,0.97021484375,4.822998046875,-5.5645751953125,8.4539794921875
2021-09-22 21:23:26.246784,0.1005859375,0.09912109375,0.9677734375,4.8834228515625,-5.625,8.37158203125
2021-09-22 21:23:26.256905,0.10107421875,0.0947265625,0.97265625,4.9603271484375,-5.6744384765625,8.272705078125
2021-09-22 21:23:26.266697,0.1025390625,0.083984375,0.97412109375,5.042724609375,-5.712890625,8.1573486328125
2021-09-22 21:23:26.276611,0.1064453125,0.08447265625,0.978515625,5.11962890625,-5.745849609375,8.031005859375
2021-09-22 21:23:26.286630,0.103515625,0.09033203125,0.96923828125,5.2020263671875,-5.767822265625,7.88818359375
2021-09-22 21:23:26.296542,0.09765625,0.0927734375,0.96875,5.2899169921875,-5.7843017578125,7.7398681640625
2021-09-22 21:23:26.306292,0.095703125,0.095703125,0.96630859375,5.3668212890625,-5.789794921875,7.5860595703125
2021-09-22 21:23:26.316415,0.0966796875,0.1025390625,0.9677734375,5.4327392578125,-5.789794921875,7.4322509765625
2021-09-22 21:23:26.326434,0.10107421875,0.10498046875,0.9697265625,5.4876708984375,-5.789794921875,7.283935546875
2021-09-22 21:23:26.336237,0.10498046875,0.0947265625,0.9755859375,5.526123046875,-5.7843017578125,7.1356201171875
2021-09-22 21:23:26.346446,0.1083984375,0.08740234375,0.974609375,5.5426025390625,-5.77880859375,6.998291015625
2021-09-22 21:23:26.356358,0.1064453125,0.08935546875,0.97314453125,5.5426025390625,-5.77880859375,6.8609619140625
2021-09-22 21:23:26.366122,0.10498046875,0.09423828125,0.96923828125,5.5316162109375,-5.767822265625,6.7291259765625
2021-09-22 21:23:26.376282,0.10009765625,0.099609375,0.96240234375,5.51513671875,-5.7568359375,6.602783203125
2021-09-22 21:23:26.386188,0.08935546875,0.1025390625,0.96044921875,5.4876708984375,-5.745849609375,6.492919921875
2021-09-22 21:23:26.396094,0.08740234375,0.10009765625,0.96142578125,5.4437255859375,-5.7293701171875,6.3995361328125
2021-09-22 21:23:26.406016,0.0927734375,0.0966796875,0.96728515625,5.3778076171875,-5.7073974609375,6.3226318359375
2021-09-22 21:23:26.416209,0.10205078125,0.09521484375,0.970703125,5.306396484375,-5.6964111328125,6.26220703125
2021-09-22 21:23:26.426173,0.1103515625,0.09375,0.97021484375,5.2294921875,-5.6854248046875,6.2127685546875
2021-09-22 21:23:26.435976,0.10791015625,0.09130859375,0.96484375,5.152587890625,-5.679931640625,6.17431640625
2021-09-22 21:23:26.445926,0.1005859375,0.09228515625,0.96630859375,5.0811767578125,-5.6744384765625,6.1468505859375
2021-09-22 21:23:26.455950,0.09912109375,0.099609375,0.9609375,5.0152587890625,-5.6634521484375,6.1248779296875
2021-09-22 21:23:26.466168,0.1044921875,0.10400390625,0.95849609375,4.954833984375,-5.6524658203125,6.119384765625
2021-09-22 21:23:26.476110,0.1083984375,0.10302734375,0.955078125,4.9053955078125,-5.635986328125,6.1138916015625
2021-09-22 21:23:26.485902,0.11279296875,0.09765625,0.95751953125,4.85595703125,-5.6304931640625,6.119384765625
2021-09-22 21:23:26.495866,0.11865234375,0.08642578125,0.96240234375,4.81201171875,-5.6195068359375,6.1248779296875
2021-09-22 21:23:26.505710,0.12451171875,0.07763671875,0.9609375,4.7735595703125,-5.6085205078125,6.13037109375
2021-09-22 21:23:26.515700,0.1259765625,0.0751953125,0.9580078125,4.74609375,-5.60302734375,6.13037109375
2021-09-22 21:23:26.525604,0.1240234375,0.0791015625,0.9453125,4.735107421875,-5.5865478515625,6.119384765625
2021-09-22 21:23:26.535639,0.1142578125,0.08642578125,0.9453125,4.7406005859375,-5.5755615234375,6.1083984375
2021-09-22 21:23:26.545476,0.10595703125,0.09814453125,0.947265625,4.7625732421875,-5.548095703125,6.0919189453125
2021-09-22 21:23:26.555606,0.10400390625,0.099609375,0.9443359375,4.7955322265625,-5.5206298828125,6.075439453125
2021-09-22 21:23:26.565453,0.10546875,0.09326171875,0.943359375,4.8394775390625,-5.4876708984375,6.0589599609375
2021-09-22 21:23:26.575436,0.10791015625,0.08544921875,0.94189453125,4.8834228515625,-5.44921875,6.04248046875
2021-09-22 21:23:26.585414,0.10888671875,0.0869140625,0.939453125,4.921875,-5.4217529296875,6.031494140625
2021-09-22 21:23:26.595439,0.109375,0.08984375,0.9404296875,4.9603271484375,-5.394287109375,6.0150146484375
2021-09-22 21:23:26.605271,0.1044921875,0.0927734375,0.9443359375,5.009765625,-5.361328125,6.0040283203125
2021-09-22 21:23:26.615305,0.10400390625,0.10009765625,0.9521484375,5.0537109375,-5.3338623046875,5.987548828125
2021-09-22 21:23:26.625246,0.10791015625,0.10498046875,0.95849609375,5.1031494140625,-5.3009033203125,5.9765625
2021-09-22 21:23:26.635151,0.1162109375,0.107421875,0.96533203125,5.1580810546875,-5.2789306640625,5.965576171875
2021-09-22 21:23:26.645211,0.11865234375,0.11083984375,0.97021484375,5.2130126953125,-5.2569580078125,5.95458984375
2021-09-22 21:23:26.655775,0.11767578125,0.107421875,0.97021484375,5.2734375,-5.2459716796875,5.943603515625
2021-09-22 21:23:26.665031,0.11279296875,0.103515625,0.9638671875,5.328369140625,-5.2349853515625,5.9326171875
2021-09-22 21:23:26.675025,0.11181640625,0.1005859375,0.9619140625,5.3887939453125,-5.218505859375,5.921630859375
2021-09-22 21:23:26.685025,0.107421875,0.0947265625,0.96630859375,5.4437255859375,-5.2130126953125,5.91064453125
2021-09-22 21:23:26.695388,0.1064453125,0.08935546875,0.97216796875,5.4986572265625,-5.2020263671875,5.899658203125
2021-09-22 21:23:26.705128,0.10400390625,0.09521484375,0.97314453125,5.548095703125,-5.2020263671875,5.8941650390625
2021-09-22 21:23:26.715186,0.103515625,0.09814453125,0.974609375,5.5975341796875,-5.196533203125,5.899658203125
2021-09-22 21:23:26.724982,0.10205078125,0.1025390625,0.97802734375,5.6414794921875,-5.2020263671875,5.9051513671875
2021-09-22 21:23:26.734950,0.1005859375,0.09912109375,0.97607421875,5.69091796875,-5.2130126953125,5.9161376953125
2021-09-22 21:23:26.744824,0.09375,0.09765625,0.978515625,5.7293701171875,-5.2239990234375,5.9326171875
2021-09-22 21:23:26.754788,0.09228515625,0.09521484375,0.9833984375,5.7623291015625,-5.240478515625,5.9600830078125
2021-09-22 21:23:26.764737,0.09716796875,0.09033203125,0.9892578125,5.7843017578125,-5.2569580078125,5.9930419921875
2021-09-22 21:23:26.774907,0.1015625,0.08544921875,0.9970703125,5.8062744140625,-5.284423828125,6.0369873046875
2021-09-22 21:23:26.784683,0.1044921875,0.0849609375,0.9990234375,5.8282470703125,-5.3118896484375,6.0809326171875
2021-09-22 21:23:26.794725,0.1005859375,0.087890625,1.00390625,5.855712890625,-5.350341796875,6.13037109375
2021-09-22 21:23:26.804673,0.09814453125,0.09375,1.00439453125,5.8941650390625,-5.38330078125,6.1798095703125
2021-09-22 21:23:26.814680,0.09765625,0.099609375,0.99755859375,5.9381103515625,-5.416259765625,6.2347412109375
2021-09-22 21:23:26.824562,0.09765625,0.10107421875,1.0009765625,5.9930419921875,-5.44921875,6.295166015625
2021-09-22 21:23:26.834577,0.10205078125,0.08935546875,1.00439453125,6.053466796875,-5.482177734375,6.361083984375
2021-09-22 21:23:26.844506,0.10791015625,0.080078125,1.00927734375,6.1029052734375,-5.51513671875,6.427001953125
2021-09-22 21:23:26.854411,0.11474609375,0.08154296875,1.01318359375,6.1468505859375,-5.548095703125,6.50390625
2021-09-22 21:23:26.864457,0.11865234375,0.083984375,1.015625,6.1962890625,-5.5755615234375,6.580810546875
2021-09-22 21:23:26.874303,0.1181640625,0.0927734375,1.01904296875,6.2457275390625,-5.60302734375,6.6522216796875
2021-09-22 21:23:26.884375,0.115234375,0.10400390625,1.01171875,6.30615234375,-5.6195068359375,6.7291259765625
2021-09-22 21:23:26.894316,0.10498046875,0.11669921875,1.00390625,6.3720703125,-5.6304931640625,6.800537109375
2021-09-22 21:23:26.904223,0.09765625,0.12939453125,0.9951171875,6.43798828125,-5.625,6.866455078125
2021-09-22 21:23:26.914266,0.09033203125,0.1240234375,0.98486328125,6.4984130859375,-5.6085205078125,6.9378662109375
2021-09-22 21:23:26.924443,0.08935546875,0.10888671875,0.986328125,6.5423583984375,-5.5810546875,7.0147705078125
2021-09-22 21:23:26.934377,0.099609375,0.08935546875,0.99072265625,6.558837890625,-5.548095703125,7.086181640625
2021-09-22 21:23:26.944400,0.10546875,0.06591796875,0.998046875,6.5478515625,-5.5206298828125,7.1685791015625
2021-09-22 21:23:26.954177,0.10400390625,0.05859375,0.99853515625,6.514892578125,-5.4876708984375,7.2454833984375
2021-09-22 21:23:26.963928,0.09716796875,0.072265625,1.001953125,6.4654541015625,-5.4547119140625,7.31689453125
2021-09-22 21:23:26.974136,0.09033203125,0.08984375,0.9970703125,6.4215087890625,-5.416259765625,7.3883056640625
2021-09-22 21:23:26.984019,0.08447265625,0.10107421875,0.986328125,6.3720703125,-5.3778076171875,7.459716796875
2021-09-22 21:23:26.993998,0.07861328125,0.1044921875,0.982421875,6.3226318359375,-5.3338623046875,7.5311279296875
2021-09-22 21:23:27.003930,0.08056640625,0.09423828125,0.98681640625,6.2567138671875,-5.2899169921875,7.6025390625
2021-09-22 21:23:27.013860,0.09033203125,0.078125,0.9951171875,6.1688232421875,-5.25146484375,7.6849365234375
2021-09-22 21:23:27.023831,0.099609375,0.07373046875,0.99658203125,6.0699462890625,-5.2239990234375,7.7618408203125
2021-09-22 21:23:27.033768,0.09716796875,0.08203125,0.99658203125,5.9710693359375,-5.20751953125,7.8387451171875
2021-09-22 21:23:27.043761,0.0869140625,0.1015625,0.9951171875,5.8941650390625,-5.185546875,7.9046630859375
2021-09-22 21:23:27.053832,0.07958984375,0.1201171875,0.99169921875,5.833740234375,-5.16357421875,7.9705810546875
2021-09-22 21:23:27.063780,0.07470703125,0.12109375,0.98779296875,5.7952880859375,-5.1361083984375,8.031005859375
2021-09-22 21:23:27.073671,0.07763671875,0.1083984375,0.990234375,5.767822265625,-5.1141357421875,8.096923828125
2021-09-22 21:23:27.083580,0.08544921875,0.095703125,0.99169921875,5.73486328125,-5.0921630859375,8.1573486328125
2021-09-22 21:23:27.093597,0.08984375,0.0927734375,0.994140625,5.7073974609375,-5.0811767578125,8.2122802734375
2021-09-22 21:23:27.103529,0.087890625,0.0927734375,0.99365234375,5.6964111328125,-5.07568359375,8.26171875
2021-09-22 21:23:27.113603,0.080078125,0.09716796875,0.98779296875,5.701904296875,-5.0701904296875,8.3111572265625
2021-09-22 21:23:27.123549,0.06884765625,0.10009765625,0.97802734375,5.723876953125,-5.064697265625,8.349609375
2021-09-22 21:23:27.133351,0.056640625,0.107421875,0.96923828125,5.7568359375,-5.0592041015625,8.382568359375
2021-09-22 21:23:27.143501,0.056640625,0.1103515625,0.96142578125,5.789794921875,-5.0482177734375,8.4210205078125
2021-09-22 21:23:27.153906,0.05615234375,0.11572265625,0.970703125,5.811767578125,-5.0482177734375,8.4649658203125
2021-09-22 21:23:27.163026,0.068359375,0.1064453125,0.98486328125,5.8282470703125,-5.0482177734375,8.514404296875
2021-09-22 21:23:27.173021,0.08837890625,0.091796875,1.01171875,5.8392333984375,-5.064697265625,8.5638427734375
2021-09-22 21:23:27.182815,0.10302734375,0.0830078125,1.0244140625,5.8392333984375,-5.0921630859375,8.61328125
2021-09-22 21:23:27.192810,0.1083984375,0.09375,1.021484375,5.8502197265625,-5.130615234375,8.6407470703125
2021-09-22 21:23:27.202739,0.103515625,0.10693359375,1.01171875,5.888671875,-5.1690673828125,8.6572265625
2021-09-22 21:23:27.212702,0.0927734375,0.11083984375,0.99853515625,5.9381103515625,-5.2130126953125,8.6517333984375
2021-09-22 21:23:27.222710,0.08447265625,0.115234375,0.986328125,5.9930419921875,-5.25146484375,8.63525390625
2021-09-22 21:23:27.232774,0.08154296875,0.10498046875,0.97705078125,6.0369873046875,-5.284423828125,8.61328125
2021-09-22 21:23:27.242778,0.08447265625,0.09033203125,0.9755859375,6.0589599609375,-5.3173828125,8.580322265625
2021-09-22 21:23:27.252659,0.083984375,0.0791015625,0.9716796875,6.053466796875,-5.361328125,8.54736328125
2021-09-22 21:23:27.262569,0.08203125,0.072265625,0.96484375,6.0205078125,-5.4052734375,8.514404296875
2021-09-22 21:23:27.272514,0.07666015625,0.0732421875,0.96142578125,5.965576171875,-5.44921875,8.4814453125
2021-09-22 21:23:27.282456,0.0693359375,0.0830078125,0.962890625,5.8941650390625,-5.4986572265625,8.4539794921875
2021-09-22 21:23:27.292428,0.06689453125,0.08447265625,0.9638671875,5.811767578125,-5.5426025390625,8.4320068359375
2021-09-22 21:23:27.302389,0.07421875,0.0830078125,0.9716796875,5.7183837890625,-5.592041015625,8.41552734375
2021-09-22 21:23:27.312538,0.08251953125,0.08154296875,0.9775390625,5.614013671875,-5.6524658203125,8.41552734375
2021-09-22 21:23:27.322381,0.08642578125,0.087890625,0.97998046875,5.504150390625,-5.712890625,8.4210205078125
2021-09-22 21:23:27.332418,0.09033203125,0.09326171875,0.97314453125,5.4107666015625,-5.77880859375,8.426513671875
2021-09-22 21:23:27.342251,0.08984375,0.103515625,0.96484375,5.328369140625,-5.8502197265625,8.4375
2021-09-22 21:23:27.352228,0.0908203125,0.119140625,0.96630859375,5.262451171875,-5.9161376953125,8.448486328125
2021-09-22 21:23:27.362152,0.0947265625,0.12255859375,0.96630859375,5.2239990234375,-5.9765625,8.4649658203125
2021-09-22 21:23:27.372134,0.10400390625,0.1142578125,0.97998046875,5.196533203125,-6.0369873046875,8.4814453125
2021-09-22 21:23:27.382086,0.11669921875,0.11279296875,0.98046875,5.185546875,-6.097412109375,8.4979248046875
2021-09-22 21:23:27.392219,0.11962890625,0.11279296875,0.98193359375,5.196533203125,-6.15234375,8.5089111328125
2021-09-22 21:23:27.402140,0.115234375,0.1103515625,0.9794921875,5.2349853515625,-6.2017822265625,8.514404296875
2021-09-22 21:23:27.412023,0.10498046875,0.1162109375,0.97021484375,5.3009033203125,-6.2347412109375,8.50341796875
2021-09-22 21:23:27.421989,0.09912109375,0.11328125,0.9619140625,5.394287109375,-6.2567138671875,8.492431640625
2021-09-22 21:23:27.431913,0.095703125,0.11083984375,0.95849609375,5.504150390625,-6.2677001953125,8.4759521484375
2021-09-22 21:23:27.441912,0.1025390625,0.10791015625,0.962890625,5.6195068359375,-6.2677001953125,8.45947265625
2021-09-22 21:23:27.451853,0.1142578125,0.10693359375,0.97021484375,5.7403564453125,-6.2677001953125,8.448486328125
2021-09-22 21:23:27.461950,0.119140625,0.107421875,0.9765625,5.8612060546875,-6.2677001953125,8.4320068359375
2021-09-22 21:23:27.471794,0.119140625,0.107421875,0.9814453125,5.9930419921875,-6.26220703125,8.4100341796875
2021-09-22 21:23:27.481778,0.1162109375,0.10693359375,0.98681640625,6.1248779296875,-6.2567138671875,8.3880615234375
2021-09-22 21:23:27.491705,0.10888671875,0.1025390625,0.98046875,6.2567138671875,-6.240234375,8.360595703125
2021-09-22 21:23:27.501697,0.1015625,0.09423828125,0.974609375,6.383056640625,-6.2237548828125,8.32763671875
2021-09-22 21:23:27.511658,0.09765625,0.091796875,0.97412109375,6.492919921875,-6.1962890625,8.294677734375
2021-09-22 21:23:27.521947,0.095703125,0.09375,0.9677734375,6.580810546875,-6.17431640625,8.272705078125
2021-09-22 21:23:27.531727,0.09619140625,0.09912109375,0.96484375,6.646728515625,-6.1468505859375,8.2562255859375
2021-09-22 21:23:27.541559,0.09375,0.10498046875,0.96435546875,6.6796875,-6.1248779296875,8.2452392578125
2021-09-22 21:23:27.551529,0.09521484375,0.111328125,0.96435546875,6.6796875,-6.1083984375,8.2452392578125
2021-09-22 21:23:27.561501,0.1005859375,0.11669921875,0.97021484375,6.6522216796875,-6.0919189453125,8.26171875
2021-09-22 21:23:27.571456,0.109375,0.119140625,0.9794921875,6.5972900390625,-6.0809326171875,8.28369140625
2021-09-22 21:23:27.581360,0.11669921875,0.11865234375,0.98291015625,6.5203857421875,-6.075439453125,8.3111572265625
2021-09-22 21:23:27.591448,0.12060546875,0.1181640625,0.98583984375,6.4215087890625,-6.075439453125,8.3441162109375
2021-09-22 21:23:27.601455,0.1201171875,0.11865234375,0.982421875,6.3226318359375,-6.075439453125,8.3770751953125
2021-09-22 21:23:27.611316,0.11572265625,0.11962890625,0.984375,6.21826171875,-6.075439453125,8.404541015625
2021-09-22 21:23:27.621243,0.111328125,0.12158203125,0.98388671875,6.1248779296875,-6.075439453125,8.4320068359375
2021-09-22 21:23:27.631221,0.10693359375,0.11669921875,0.98095703125,6.0369873046875,-6.0699462890625,8.45947265625
2021-09-22 21:23:27.641188,0.10546875,0.1181640625,0.98193359375,5.9600830078125,-6.0589599609375,8.4814453125
2021-09-22 21:23:27.651744,0.1044921875,0.12109375,0.9833984375,5.9051513671875,-6.0479736328125,8.5089111328125
2021-09-22 21:23:27.661247,0.1025390625,0.1240234375,0.98779296875,5.8721923828125,-6.031494140625,8.5308837890625
2021-09-22 21:23:27.671183,0.1025390625,0.11865234375,0.990234375,5.8721923828125,-6.0205078125,8.54736328125
2021-09-22 21:23:27.681134,0.10400390625,0.1142578125,0.9853515625,5.9051513671875,-6.0040283203125,8.5693359375
2021-09-22 21:23:27.690980,0.1005859375,0.1103515625,0.9814453125,5.965576171875,-5.987548828125,8.580322265625
2021-09-22 21:23:27.700952,0.0966796875,0.109375,0.9736328125,6.053466796875,-5.9710693359375,8.5968017578125
2021-09-22 21:23:27.710960,0.09375,0.11083984375,0.96630859375,6.1688232421875,-5.95458984375,8.602294921875
2021-09-22 21:23:27.720898,0.08740234375,0.10986328125,0.95947265625,6.3116455078125,-5.9326171875,8.61328125
2021-09-22 21:23:27.730997,0.08837890625,0.10791015625,0.96533203125,6.4654541015625,-5.9051513671875,8.6187744140625
2021-09-22 21:23:27.740912,0.09130859375,0.11181640625,0.966796875,6.6302490234375,-5.8831787109375,8.624267578125
2021-09-22 21:23:27.750926,0.095703125,0.11865234375,0.9658203125,6.800537109375,-5.8612060546875,8.6297607421875
2021-09-22 21:23:27.760790,0.0947265625,0.126953125,0.96875,6.976318359375,-5.8392333984375,8.63525390625
2021-09-22 21:23:27.770739,0.09765625,0.13525390625,0.97021484375,7.1575927734375,-5.8172607421875,8.6407470703125
2021-09-22 21:23:27.780686,0.09423828125,0.13671875,0.974609375,7.3333740234375,-5.7952880859375,8.646240234375
2021-09-22 21:23:27.790653,0.095703125,0.13720703125,0.97509765625,7.4981689453125,-5.7733154296875,8.6572265625
2021-09-22 21:23:27.800600,0.09912109375,0.1357421875,0.97900390625,7.646484375,-5.7513427734375,8.6627197265625
2021-09-22 21:23:27.810729,0.103515625,0.1376953125,0.984375,7.7783203125,-5.7293701171875,8.6737060546875
2021-09-22 21:23:27.820610,0.10302734375,0.1376953125,0.9853515625,7.8936767578125,-5.712890625,8.67919921875
2021-09-22 21:23:27.830572,0.10107421875,0.14208984375,0.9853515625,7.998046875,-5.69091796875,8.690185546875
2021-09-22 21:23:27.840556,0.0966796875,0.14404296875,0.9833984375,8.0914306640625,-5.6689453125,8.6956787109375
2021-09-22 21:23:27.850477,0.09423828125,0.14794921875,0.9755859375,8.1683349609375,-5.64697265625,8.701171875
2021-09-22 21:23:27.860439,0.09130859375,0.14794921875,0.97021484375,8.2342529296875,-5.6195068359375,8.712158203125
2021-09-22 21:23:27.870421,0.08837890625,0.14697265625,0.9697265625,8.28369140625,-5.592041015625,8.7286376953125
2021-09-22 21:23:27.880543,0.0908203125,0.1396484375,0.97265625,8.3111572265625,-5.5645751953125,8.7506103515625
2021-09-22 21:23:27.890367,0.095703125,0.12890625,0.97216796875,8.3221435546875,-5.537109375,8.778076171875
2021-09-22 21:23:27.900454,0.09765625,0.125,0.9755859375,8.316650390625,-5.51513671875,8.81103515625
2021-09-22 21:23:27.910282,0.09814453125,0.13037109375,0.97314453125,8.3056640625,-5.4876708984375,8.8385009765625
2021-09-22 21:23:27.920249,0.0927734375,0.13671875,0.97021484375,8.294677734375,-5.4656982421875,8.8714599609375
2021-09-22 21:23:27.930217,0.09228515625,0.142578125,0.9658203125,8.2891845703125,-5.4327392578125,8.9044189453125
2021-09-22 21:23:27.940162,0.0888671875,0.1484375,0.966796875,8.2891845703125,-5.4052734375,8.94287109375
2021-09-22 21:23:27.950438,0.08935546875,0.150390625,0.9697265625,8.294677734375,-5.372314453125,8.975830078125
2021-09-22 21:23:27.960684,0.09375,0.14599609375,0.9716796875,8.3056640625,-5.3338623046875,9.0142822265625
2021-09-22 21:23:27.970781,0.09716796875,0.142578125,0.97216796875,8.3221435546875,-5.3009033203125,9.052734375
2021-09-22 21:23:27.980582,0.09765625,0.1396484375,0.9765625,8.3441162109375,-5.2679443359375,9.0911865234375
2021-09-22 21:23:27.990561,0.09375,0.142578125,0.9736328125,8.3770751953125,-5.2294921875,9.1241455078125
2021-09-22 21:23:28.000450,0.083984375,0.1435546875,0.9697265625,8.426513671875,-5.1910400390625,9.151611328125
2021-09-22 21:23:28.010453,0.0791015625,0.150390625,0.97021484375,8.4869384765625,-5.1416015625,9.1790771484375
2021-09-22 21:23:28.020394,0.0810546875,0.15185546875,0.9755859375,8.5638427734375,-5.0921630859375,9.2010498046875
2021-09-22 21:23:28.030357,0.0859375,0.14990234375,0.97802734375,8.646240234375,-5.042724609375,9.228515625
2021-09-22 21:23:28.040314,0.09130859375,0.15087890625,0.9775390625,8.7286376953125,-4.9932861328125,9.25048828125
2021-09-22 21:23:28.050241,0.09326171875,0.1513671875,0.97607421875,8.822021484375,-4.94384765625,9.2669677734375
2021-09-22 21:23:28.060124,0.09326171875,0.14990234375,0.97705078125,8.909912109375,-4.89990234375,9.2779541015625
2021-09-22 21:23:28.070200,0.08642578125,0.154296875,0.978515625,8.997802734375,-4.85595703125,9.2889404296875
2021-09-22 21:23:28.080087,0.08203125,0.1591796875,0.9755859375,9.085693359375,-4.8065185546875,9.2889404296875
2021-09-22 21:23:28.090175,0.07763671875,0.15966796875,0.97900390625,9.1680908203125,-4.757080078125,9.2889404296875
2021-09-22 21:23:28.100070,0.07861328125,0.15771484375,0.97607421875,9.239501953125,-4.7076416015625,9.29443359375
2021-09-22 21:23:28.110082,0.07958984375,0.15380859375,0.9775390625,9.29443359375,-4.658203125,9.29443359375
2021-09-22 21:23:28.120054,0.08203125,0.15380859375,0.97802734375,9.33837890625,-4.6142578125,9.29443359375
2021-09-22 21:23:28.129956,0.087890625,0.1552734375,0.9736328125,9.371337890625,-4.5758056640625,9.29443359375
2021-09-22 21:23:28.139922,0.09033203125,0.15625,0.9736328125,9.393310546875,-4.5428466796875,9.29443359375
2021-09-22 21:23:28.150542,0.0859375,0.15771484375,0.97412109375,9.404296875,-4.5098876953125,9.2889404296875
2021-09-22 21:23:28.159886,0.08251953125,0.15673828125,0.9775390625,9.4097900390625,-4.482421875,9.2779541015625
2021-09-22 21:23:28.169881,0.0791015625,0.1533203125,0.9765625,9.3988037109375,-4.449462890625,9.2669677734375
2021-09-22 21:23:28.179892,0.07568359375,0.1484375,0.97509765625,9.38232421875,-4.41650390625,9.2559814453125
2021-09-22 21:23:28.189859,0.07568359375,0.14990234375,0.97314453125,9.349365234375,-4.383544921875,9.239501953125
2021-09-22 21:23:28.199801,0.07763671875,0.15576171875,0.97412109375,9.31640625,-4.3560791015625,9.2230224609375
2021-09-22 21:23:28.209704,0.078125,0.15771484375,0.97802734375,9.2779541015625,-4.3341064453125,9.2120361328125
2021-09-22 21:23:28.219692,0.07861328125,0.1591796875,0.98291015625,9.239501953125,-4.3121337890625,9.195556640625
2021-09-22 21:23:28.229582,0.07861328125,0.15966796875,0.9873046875,9.195556640625,-4.295654296875,9.1790771484375
2021-09-22 21:23:28.239604,0.08251953125,0.1572265625,0.98779296875,9.1571044921875,-4.2791748046875,9.1571044921875
2021-09-22 21:23:28.249554,0.083984375,0.1494140625,0.98291015625,9.11865234375,-4.2626953125,9.1351318359375
2021-09-22 21:23:28.259424,0.0830078125,0.15185546875,0.978515625,9.0802001953125,-4.2572021484375,9.107666015625
2021-09-22 21:23:28.269414,0.0830078125,0.15185546875,0.978515625,9.0472412109375,-4.2462158203125,9.0802001953125
2021-09-22 21:23:28.279468,0.08154296875,0.14892578125,0.9716796875,9.0087890625,-4.24072265625,9.0472412109375
2021-09-22 21:23:28.289457,0.07568359375,0.14697265625,0.97021484375,8.9703369140625,-4.2352294921875,9.0142822265625
2021-09-22 21:23:28.299397,0.07421875,0.1435546875,0.97021484375,8.9154052734375,-4.2242431640625,8.9813232421875
2021-09-22 21:23:28.309255,0.0771484375,0.14111328125,0.9775390625,8.85498046875,-4.21875,8.9483642578125
2021-09-22 21:23:28.319286,0.0830078125,0.14013671875,0.984375,8.7835693359375,-4.2132568359375,8.909912109375
2021-09-22 21:23:28.329355,0.0859375,0.13671875,0.984375,8.7066650390625,-4.2132568359375,8.8714599609375
2021-09-22 21:23:28.339235,0.0830078125,0.1328125,0.97802734375,8.6297607421875,-4.2132568359375,8.8330078125
2021-09-22 21:23:28.349143,0.07763671875,0.13916015625,0.974609375,8.558349609375,-4.21875,8.7945556640625
2021-09-22 21:23:28.359130,0.0732421875,0.14794921875,0.97314453125,8.4869384765625,-4.21875,8.756103515625
2021-09-22 21:23:28.369205,0.0693359375,0.15625,0.96337890625,8.426513671875,-4.21875,8.7176513671875
2021-09-22 21:23:28.379010,0.0693359375,0.15576171875,0.96044921875,8.3660888671875,-4.2242431640625,8.690185546875
2021-09-22 21:23:28.388993,0.07080078125,0.15283203125,0.9638671875,8.3001708984375,-4.229736328125,8.668212890625
2021-09-22 21:23:28.399070,0.0771484375,0.142578125,0.96728515625,8.2232666015625,-4.24072265625,8.6517333984375
2021-09-22 21:23:28.409326,0.08447265625,0.13720703125,0.96728515625,8.1463623046875,-4.251708984375,8.6407470703125
2021-09-22 21:23:28.418862,0.08349609375,0.138671875,0.9658203125,8.0804443359375,-4.273681640625,8.63525390625
2021-09-22 21:23:28.428674,0.07568359375,0.140625,0.9638671875,8.0255126953125,-4.295654296875,8.624267578125
2021-09-22 21:23:28.438472,0.0703125,0.14990234375,0.9599609375,7.9815673828125,-4.3121337890625,8.6187744140625
2021-09-22 21:23:28.448385,0.0654296875,0.15380859375,0.95458984375,7.9595947265625,-4.3231201171875,8.61328125
2021-09-22 21:23:28.458357,0.0712890625,0.1484375,0.9560546875,7.9541015625,-4.3341064453125,8.61328125
2021-09-22 21:23:28.468315,0.07568359375,0.1455078125,0.95947265625,7.9486083984375,-4.3505859375,8.6187744140625
2021-09-22 21:23:28.478254,0.07666015625,0.1416015625,0.95703125,7.9595947265625,-4.3670654296875,8.624267578125
2021-09-22 21:23:28.488392,0.07763671875,0.140625,0.9599609375,7.9815673828125,-4.383544921875,8.6297607421875
2021-09-22 21:23:28.498316,0.0810546875,0.1416015625,0.96142578125,8.0145263671875,-4.4000244140625,8.63525390625
2021-09-22 21:23:28.508171,0.07958984375,0.14501953125,0.9638671875,8.06396484375,-4.41650390625,8.63525390625
2021-09-22 21:23:28.518098,0.0751953125,0.1484375,0.9619140625,8.1298828125,-4.4329833984375,8.63525390625
2021-09-22 21:23:28.528086,0.07080078125,0.1494140625,0.9609375,8.206787109375,-4.4439697265625,8.63525390625
2021-09-22 21:23:28.538001,0.07177734375,0.1513671875,0.96630859375,8.3001708984375,-4.4549560546875,8.63525390625
2021-09-22 21:23:28.547952,0.07275390625,0.1513671875,0.96826171875,8.3990478515625,-4.4659423828125,8.6297607421875
2021-09-22 21:23:28.558133,0.080078125,0.13330078125,1.00537109375,8.514404296875,-4.4769287109375,8.6297607421875
2021-09-22 21:23:28.568022,0.07421875,0.1318359375,1.060546875,8.6077880859375,-4.4879150390625,8.624267578125
2021-09-22 21:23:28.577965,0.056640625,0.11767578125,1.0,8.6407470703125,-4.5208740234375,8.624267578125
2021-09-22 21:23:28.587901,0.05908203125,0.12841796875,1.0166015625,8.6187744140625,-4.5758056640625,8.6187744140625
2021-09-22 21:23:28.597839,0.0791015625,0.1396484375,0.96923828125,8.558349609375,-4.63623046875,8.6077880859375
2021-09-22 21:23:28.607815,0.0810546875,0.14599609375,0.9609375,8.4869384765625,-4.7021484375,8.5858154296875
2021-09-22 21:23:28.617743,0.06591796875,0.13134765625,1.005859375,8.41552734375,-4.7625732421875,8.5528564453125
2021-09-22 21:23:28.627964,0.0654296875,0.13671875,0.99462890625,8.3331298828125,-4.8065185546875,8.525390625
2021-09-22 21:23:28.637726,0.078125,0.1376953125,0.9765625,8.23974609375,-4.822998046875,8.4869384765625
2021-09-22 21:23:28.648283,0.09423828125,0.11865234375,0.95849609375,8.1573486328125,-4.8284912109375,8.448486328125
2021-09-22 21:23:28.657561,0.0859375,0.123046875,0.947265625,8.0859375,-4.8284912109375,8.404541015625
2021-09-22 21:23:28.667542,0.078125,0.13525390625,0.982421875,8.0255126953125,-4.822998046875,8.360595703125
2021-09-22 21:23:28.677526,0.08837890625,0.12353515625,0.98486328125,7.998046875,-4.8065185546875,8.3111572265625
2021-09-22 21:23:28.687560,0.09130859375,0.1240234375,0.98583984375,7.987060546875,-4.7900390625,8.2672119140625
2021-09-22 21:23:28.697595,0.091796875,0.13818359375,0.98388671875,7.998046875,-4.7625732421875,8.228759765625
2021-09-22 21:23:28.707495,0.08837890625,0.13623046875,0.97802734375,8.0255126953125,-4.735107421875,8.19580078125
2021-09-22 21:23:28.717440,0.08642578125,0.13232421875,1.03125,8.0584716796875,-4.7021484375,8.173828125
2021-09-22 21:23:28.727395,0.0830078125,0.126953125,0.9873046875,8.0694580078125,-4.669189453125,8.1573486328125
2021-09-22 21:23:28.737354,0.08544921875,0.11865234375,0.9833984375,8.0694580078125,-4.6417236328125,8.15185546875
2021-09-22 21:23:28.747288,0.095703125,0.11279296875,0.99609375,8.0474853515625,-4.625244140625,8.15185546875
2021-09-22 21:23:28.757499,0.09765625,0.126953125,0.9755859375,8.0255126953125,-4.625244140625,8.162841796875
2021-09-22 21:23:28.767414,0.08203125,0.1396484375,0.98095703125,8.0035400390625,-4.6417236328125,8.173828125
2021-09-22 21:23:28.777377,0.07666015625,0.14404296875,0.990234375,8.0035400390625,-4.658203125,8.1903076171875
2021-09-22 21:23:28.787306,0.08154296875,0.1455078125,1.00634765625,8.031005859375,-4.669189453125,8.206787109375
2021-09-22 21:23:28.797146,0.0712890625,0.1484375,1.0,8.06396484375,-4.68017578125,8.2232666015625
2021-09-22 21:23:28.807092,0.0771484375,0.1376953125,0.9931640625,8.1024169921875,-4.6856689453125,8.2342529296875
2021-09-22 21:23:28.817132,0.08984375,0.13525390625,0.98828125,8.1298828125,-4.6856689453125,8.2342529296875
2021-09-22 21:23:28.827122,0.09033203125,0.1318359375,0.9755859375,8.162841796875,-4.6856689453125,8.2232666015625
2021-09-22 21:23:28.836947,0.09326171875,0.1328125,0.97607421875,8.2012939453125,-4.691162109375,8.206787109375
2021-09-22 21:23:28.847098,0.08642578125,0.13623046875,0.97216796875,8.23974609375,-4.6966552734375,8.184814453125
2021-09-22 21:23:28.857037,0.08154296875,0.1396484375,0.97705078125,8.2781982421875,-4.7021484375,8.162841796875
2021-09-22 21:23:28.867009,0.08349609375,0.13818359375,0.97412109375,8.316650390625,-4.7076416015625,8.1353759765625
2021-09-22 21:23:28.876893,0.08251953125,0.1376953125,0.9755859375,8.3551025390625,-4.713134765625,8.10791015625
2021-09-22 21:23:28.886845,0.08251953125,0.13671875,0.97607421875,8.3880615234375,-4.72412109375,8.0804443359375
2021-09-22 21:23:28.896784,0.08642578125,0.1416015625,0.9765625,8.41552734375,-4.7406005859375,8.0584716796875
2021-09-22 21:23:28.906782,0.07958984375,0.13671875,0.96484375,8.4375,-4.757080078125,8.0364990234375
2021-09-22 21:23:28.916751,0.08935546875,0.15087890625,0.97216796875,8.4539794921875,-4.7735595703125,8.009033203125
2021-09-22 21:23:28.926760,0.08984375,0.1494140625,0.95751953125,8.45947265625,-4.7845458984375,7.9815673828125
2021-09-22 21:23:28.936761,0.07568359375,0.14599609375,0.97265625,8.448486328125,-4.8065185546875,7.9541015625
2021-09-22 21:23:28.946703,0.08544921875,0.1494140625,0.98388671875,8.41552734375,-4.8175048828125,7.93212890625
2021-09-22 21:23:28.956640,0.09130859375,0.15087890625,0.97705078125,8.3660888671875,-4.833984375,7.9156494140625
2021-09-22 21:23:28.966636,0.09228515625,0.1513671875,0.98291015625,8.3056640625,-4.85595703125,7.9046630859375
2021-09-22 21:23:28.976504,0.0986328125,0.1591796875,0.9814453125,8.2232666015625,-4.8834228515625,7.899169921875
2021-09-22 21:23:28.986560,0.0947265625,0.16259765625,0.96826171875,8.1243896484375,-4.910888671875,7.899169921875
2021-09-22 21:23:28.996566,0.09814453125,0.15576171875,0.970703125,8.0145263671875,-4.9383544921875,7.899169921875
2021-09-22 21:23:29.006450,0.1015625,0.14990234375,0.9716796875,7.88818359375,-4.9713134765625,7.9046630859375
2021-09-22 21:23:29.016419,0.10302734375,0.14453125,0.97705078125,7.745361328125,-4.998779296875,7.91015625
2021-09-22 21:23:29.026397,0.10498046875,0.13671875,0.9794921875,7.6025390625,-5.0262451171875,7.921142578125
2021-09-22 21:23:29.036320,0.1083984375,0.130859375,0.9755859375,7.459716796875,-5.0537109375,7.9266357421875
2021-09-22 21:23:29.046240,0.10498046875,0.1298828125,0.97705078125,7.327880859375,-5.0811767578125,7.9376220703125
2021-09-22 21:23:29.056317,0.0986328125,0.12939453125,0.97607421875,7.218017578125,-5.09765625,7.943115234375
2021-09-22 21:23:29.066330,0.0927734375,0.130859375,0.9736328125,7.1356201171875,-5.1141357421875,7.9541015625
2021-09-22 21:23:29.076188,0.08642578125,0.13134765625,0.97119140625,7.0751953125,-5.1251220703125,7.965087890625
2021-09-22 21:23:29.086191,0.08251953125,0.126953125,0.96875,7.0477294921875,-5.130615234375,7.9815673828125
2021-09-22 21:23:29.096145,0.0849609375,0.12646484375,0.970703125,7.0367431640625,-5.130615234375,8.0035400390625
2021-09-22 21:23:29.106083,0.087890625,0.12451171875,0.970703125,7.0587158203125,-5.130615234375,8.031005859375
2021-09-22 21:23:29.116104,0.0888671875,0.1240234375,0.96484375,7.09716796875,-5.1361083984375,8.0584716796875
2021-09-22 21:23:29.126177,0.08837890625,0.12646484375,0.962890625,7.1575927734375,-5.1416015625,8.0914306640625
2021-09-22 21:23:29.136032,0.0859375,0.125,0.96044921875,7.2344970703125,-5.1470947265625,8.1298828125
2021-09-22 21:23:29.146600,0.08447265625,0.1240234375,0.9619140625,7.327880859375,-5.152587890625,8.162841796875
2021-09-22 21:23:29.155892,0.08642578125,0.12890625,0.96337890625,7.4212646484375,-5.152587890625,8.2012939453125
2021-09-22 21:23:29.165821,0.0869140625,0.134765625,0.9619140625,7.5146484375,-5.1580810546875,8.23974609375
2021-09-22 21:23:29.175803,0.0869140625,0.1376953125,0.962890625,7.613525390625,-5.16357421875,8.272705078125
2021-09-22 21:23:29.185774,0.08544921875,0.13671875,0.9658203125,7.701416015625,-5.16357421875,8.3111572265625
2021-09-22 21:23:29.195884,0.08837890625,0.1376953125,0.9638671875,7.7728271484375,-5.1690673828125,8.3441162109375
2021-09-22 21:23:29.205898,0.08740234375,0.1396484375,0.9619140625,7.833251953125,-5.174560546875,8.3770751953125
2021-09-22 21:23:29.215783,0.08740234375,0.14111328125,0.96533203125,7.8826904296875,-5.1800537109375,8.4100341796875
2021-09-22 21:23:29.225697,0.0830078125,0.13916015625,0.96484375,7.9046630859375,-5.1800537109375,8.4375
2021-09-22 21:23:29.235642,0.0849609375,0.1396484375,0.970703125,7.91015625,-5.185546875,8.4649658203125
2021-09-22 21:23:29.245576,0.08984375,0.13916015625,0.97119140625,7.8936767578125,-5.196533203125,8.492431640625
2021-09-22 21:23:29.255558,0.09326171875,0.13818359375,0.9736328125,7.855224609375,-5.20751953125,8.525390625
2021-09-22 21:23:29.265485,0.09765625,0.1376953125,0.982421875,7.8057861328125,-5.218505859375,8.54736328125
2021-09-22 21:23:29.275625,0.10009765625,0.1396484375,0.982421875,7.7508544921875,-5.240478515625,8.5693359375
2021-09-22 21:23:29.285457,0.09912109375,0.1357421875,0.9775390625,7.6849365234375,-5.262451171875,8.580322265625
2021-09-22 21:23:29.295420,0.09765625,0.13720703125,0.97216796875,7.6190185546875,-5.2789306640625,8.59130859375
2021-09-22 21:23:29.305387,0.0947265625,0.13916015625,0.9716796875,7.547607421875,-5.3009033203125,8.59130859375
2021-09-22 21:23:29.315292,0.0927734375,0.13916015625,0.96875,7.4761962890625,-5.3228759765625,8.5858154296875
2021-09-22 21:23:29.325301,0.09228515625,0.13671875,0.9697265625,7.40478515625,-5.3448486328125,8.5858154296875
2021-09-22 21:23:29.335250,0.0947265625,0.13134765625,0.978515625,7.327880859375,-5.3668212890625,8.580322265625
2021-09-22 21:23:29.345454,0.0966796875,0.125,0.9833984375,7.2564697265625,-5.394287109375,8.5748291015625
2021-09-22 21:23:29.355254,0.0986328125,0.11767578125,0.98583984375,7.196044921875,-5.4217529296875,8.5638427734375
2021-09-22 21:23:29.365165,0.09765625,0.1201171875,0.98486328125,7.1466064453125,-5.44921875,8.54736328125
2021-09-22 21:23:29.375109,0.09375,0.123046875,0.98193359375,7.1136474609375,-5.482177734375,8.5308837890625
2021-09-22 21:23:29.385116,0.09423828125,0.1279296875,0.9765625,7.1026611328125,-5.51513671875,8.514404296875
2021-09-22 21:23:29.395088,0.09326171875,0.13134765625,0.97509765625,7.1136474609375,-5.5535888671875,8.492431640625
2021-09-22 21:23:29.405047,0.09130859375,0.13232421875,0.9716796875,7.130126953125,-5.592041015625,8.4759521484375
2021-09-22 21:23:29.415082,0.0888671875,0.126953125,0.97216796875,7.152099609375,-5.6304931640625,8.45947265625
2021-09-22 21:23:29.424964,0.0908203125,0.12109375,0.9755859375,7.174072265625,-5.6689453125,8.448486328125
2021-09-22 21:23:29.434898,0.095703125,0.11767578125,0.98193359375,7.1905517578125,-5.712890625,8.4429931640625
2021-09-22 21:23:29.444891,0.099609375,0.11767578125,0.98779296875,7.218017578125,-5.7623291015625,8.4375
2021-09-22 21:23:29.454835,0.1005859375,0.12109375,0.986328125,7.2454833984375,-5.811767578125,8.4320068359375
2021-09-22 21:23:29.464808,0.0966796875,0.1279296875,0.984375,7.2894287109375,-5.86669921875,8.426513671875
2021-09-22 21:23:29.474816,0.09619140625,0.13671875,0.984375,7.3388671875,-5.9161376953125,8.4210205078125
2021-09-22 21:23:29.485284,0.095703125,0.14013671875,0.984375,7.393798828125,-5.9710693359375,8.4210205078125
2021-09-22 21:23:29.495508,-0.15185546875,0.0986328125,1.0205078125,7.44873046875,-6.0260009765625,8.41552734375
2021-09-22 21:23:29.505268,-0.173828125,0.0966796875,1.01416015625,7.4761962890625,-5.943603515625,8.4100341796875
2021-09-22 21:23:29.515197,0.134765625,0.23193359375,1.33984375,7.4981689453125,-5.7952880859375,8.3551025390625
2021-09-22 21:23:29.525111,0.35009765625,0.103515625,1.107421875,7.481689453125,-5.64697265625,8.2232666015625
2021-09-22 21:23:29.535177,0.40283203125,0.1005859375,1.0849609375,7.4212646484375,-5.4986572265625,8.06396484375
2021-09-22 21:23:29.545134,0.38427734375,0.12939453125,1.01708984375,7.218017578125,-5.3173828125,7.998046875
2021-09-22 21:23:29.555073,0.17578125,0.1201171875,0.93310546875,6.9268798828125,-5.174560546875,8.0145263671875
2021-09-22 21:23:29.564885,0.013671875,-0.01953125,0.94775390625,6.558837890625,-4.9383544921875,8.1134033203125
2021-09-22 21:23:29.574951,0.005859375,0.01904296875,0.93408203125,6.1358642578125,-4.6417236328125,8.2452392578125
2021-09-22 21:23:29.584994,0.08935546875,-0.09765625,0.8466796875,5.7403564453125,-4.37255859375,8.4210205078125
2021-09-22 21:23:29.594867,0.0546875,-0.07470703125,0.95361328125,5.3778076171875,-4.1363525390625,8.6077880859375
2021-09-22 21:23:29.604912,0.1337890625,0.00732421875,1.18798828125,5.020751953125,-3.922119140625,8.8055419921875
2021-09-22 21:23:29.614868,0.03125,0.3603515625,0.9833984375,4.6856689453125,-3.75732421875,9.052734375
2021-09-22 21:23:29.624794,-0.11669921875,0.29296875,1.21484375,4.427490234375,-3.4881591796875,9.349365234375
2021-09-22 21:23:29.634712,-0.13525390625,0.00048828125,0.9736328125,4.3505859375,-3.2244873046875,9.64599609375
2021-09-22 21:23:29.645360,0.05029296875,-0.029296875,0.8388671875,4.2791748046875,-3.0322265625,9.8052978515625
2021-09-22 21:23:29.654703,0.1787109375,0.037109375,0.8759765625,4.130859375,-2.8125,9.8052978515625
2021-09-22 21:23:29.664569,0.05029296875,0.06884765625,1.080078125,4.031982421875,-2.70263671875,9.700927734375
2021-09-22 21:23:29.674607,-0.06640625,0.06201171875,0.9208984375,3.988037109375,-2.5653076171875,9.6075439453125
2021-09-22 21:23:29.684581,-0.00927734375,0.13818359375,0.91650390625,3.9935302734375,-2.3895263671875,9.5306396484375
2021-09-22 21:23:29.694463,0.01611328125,0.1416015625,0.78515625,4.02099609375,-2.2357177734375,9.4757080078125
2021-09-22 21:23:29.704403,-0.01025390625,0.08984375,0.880859375,4.1363525390625,-2.1368408203125,9.459228515625
2021-09-22 21:23:29.714853,0.013671875,0.12158203125,0.90234375,4.273681640625,-2.032470703125,9.459228515625
2021-09-22 21:23:29.724553,0.01904296875,0.1181640625,0.8798828125,4.427490234375,-1.9281005859375,9.437255859375
2021-09-22 21:23:29.734478,-0.00244140625,0.1259765625,0.9443359375,4.59228515625,-1.8402099609375,9.371337890625
2021-09-22 21:23:29.744414,0.0234375,0.142578125,0.92041015625,4.7845458984375,-1.7742919921875,9.2999267578125
2021-09-22 21:23:29.754325,0.0400390625,0.10986328125,0.8349609375,4.998779296875,-1.746826171875,9.2559814453125
2021-09-22 21:23:29.764226,0.083984375,0.06298828125,1.22314453125,5.2020263671875,-1.746826171875,9.2449951171875
2021-09-22 21:23:29.774108,0.107421875,0.11962890625,0.9287109375,5.42724609375,-1.7303466796875,9.2724609375
2021-09-22 21:23:29.784178,0.0634765625,0.11376953125,0.90478515625,5.5865478515625,-1.790771484375,9.38232421875
2021-09-22 21:23:29.794084,0.01708984375,0.11474609375,1.0234375,5.7513427734375,-1.91162109375,9.547119140625
2021-09-22 21:23:29.804092,0.03125,0.138671875,1.0849609375,5.8831787109375,-1.988525390625,9.7283935546875
2021-09-22 21:23:29.814108,0.07470703125,0.115234375,0.94140625,6.0040283203125,-2.054443359375,9.942626953125
2021-09-22 21:23:29.824034,0.14306640625,0.134765625,1.10205078125,6.1358642578125,-2.1697998046875,10.2117919921875
2021-09-22 21:23:29.834018,0.1328125,0.08984375,1.07568359375,6.2567138671875,-2.3016357421875,10.557861328125
2021-09-22 21:23:29.843927,0.0869140625,0.0458984375,0.95947265625,6.328125,-2.4609375,10.9478759765625
2021-09-22 21:23:29.853989,0.076171875,0.08251953125,0.79443359375,6.30615234375,-2.65869140625,11.326904296875
2021-09-22 21:23:29.863832,0.04345703125,0.12255859375,1.0,6.2237548828125,-2.8564453125,11.6510009765625
2021-09-22 21:23:29.873764,-0.01123046875,0.16162109375,0.90771484375,6.119384765625,-2.9937744140625,11.8817138671875
2021-09-22 21:23:29.883751,0.00048828125,0.12158203125,0.78515625,6.009521484375,-3.131103515625,12.030029296875
2021-09-22 21:23:29.893882,0.09375,0.064453125,0.884765625,5.91064453125,-3.2574462890625,12.161865234375
2021-09-22 21:23:29.903768,0.1171875,0.06005859375,1.0078125,5.7733154296875,-3.394775390625,12.3541259765625
2021-09-22 21:23:29.913662,0.10107421875,0.0400390625,1.013671875,5.6085205078125,-3.5430908203125,12.568359375
2021-09-22 21:23:29.923699,0.0966796875,0.03466796875,0.9365234375,5.4052734375,-3.6859130859375,12.7606201171875
2021-09-22 21:23:29.933587,0.0888671875,0.07666015625,1.05908203125,5.20751953125,-3.8232421875,12.9254150390625
2021-09-22 21:23:29.943996,0.03564453125,0.095703125,1.08203125,5.009765625,-3.955078125,13.018798828125
2021-09-22 21:23:29.953839,-0.03076171875,0.15966796875,0.962890625,4.7845458984375,-4.0594482421875,12.996826171875
2021-09-22 21:23:29.963685,0.005859375,-0.0439453125,1.1357421875,4.6087646484375,-4.1143798828125,12.886962890625
2021-09-22 21:23:29.973705,0.04541015625,-0.0009765625,0.8857421875,4.46044921875,-4.24072265625,12.7386474609375
2021-09-22 21:23:29.983562,0.04248046875,0.0078125,0.88330078125,4.2352294921875,-4.37255859375,12.557373046875
2021-09-22 21:23:29.993578,-0.0263671875,0.07373046875,0.89599609375,3.988037109375,-4.4110107421875,12.271728515625
2021-09-22 21:23:30.003474,-0.02099609375,-0.0009765625,0.98388671875,3.8067626953125,-4.4219970703125,11.876220703125
2021-09-22 21:23:30.013575,0.01953125,-0.00341796875,0.9296875,3.6968994140625,-4.449462890625,11.392822265625
2021-09-22 21:23:30.023446,0.05859375,0.01953125,0.8779296875,3.548583984375,-4.5263671875,10.8819580078125
2021-09-22 21:23:30.033417,0.02880859375,0.052734375,0.8916015625,3.3782958984375,-4.625244140625,10.3875732421875
2021-09-22 21:23:30.043301,-0.02734375,0.06689453125,0.87255859375,3.22998046875,-4.7406005859375,9.942626953125
2021-09-22 21:23:30.053379,-0.01123046875,0.09375,0.93896484375,3.1036376953125,-4.8394775390625,9.5635986328125
2021-09-22 21:23:30.063163,0.01904296875,0.09765625,0.88818359375,2.999267578125,-4.94384765625,9.2340087890625
2021-09-22 21:23:30.073234,0.029296875,0.0927734375,0.9091796875,2.933349609375,-5.0592041015625,8.9263916015625
2021-09-22 21:23:30.083136,0.05810546875,0.0732421875,0.974609375,2.8948974609375,-5.1800537109375,8.61328125
2021-09-22 21:23:30.093161,0.10888671875,0.107421875,1.05712890625,2.823486328125,-5.306396484375,8.3111572265625
2021-09-22 21:23:30.103167,0.14794921875,0.03857421875,1.10888671875,2.691650390625,-5.416259765625,8.0859375
2021-09-22 21:23:30.113051,0.19091796875,-0.03955078125,1.265625,2.5048828125,-5.537109375,7.9486083984375
2021-09-22 21:23:30.122963,0.2763671875,0.02099609375,1.33154296875,2.2467041015625,-5.5645751953125,7.91015625
2021-09-22 21:23:30.133009,0.21533203125,0.03662109375,0.84423828125,1.8292236328125,-5.6195068359375,8.0145263671875
2021-09-22 21:23:30.143657,0.11865234375,0.111328125,1.10498046875,1.3787841796875,-5.7403564453125,8.272705078125
2021-09-22 21:23:30.152937,0.087890625,0.08447265625,1.205078125,0.9613037109375,-5.7403564453125,8.6187744140625
2021-09-22 21:23:30.163247,0.10400390625,0.068359375,0.99658203125,0.6097412109375,-5.6689453125,8.9923095703125
2021-09-22 21:23:30.173193,0.16650390625,0.08984375,1.01806640625,0.274658203125,-5.5810546875,9.437255859375
2021-09-22 21:23:30.183190,0.15185546875,0.0185546875,1.1083984375,0.032958984375,-5.4986572265625,9.9755859375
2021-09-22 21:23:30.192797,0.1298828125,-0.072265625,0.96533203125,-0.15380859375,-5.394287109375,10.5523681640625
2021-09-22 21:23:30.202822,0.11279296875,-0.03125,0.74853515625,-0.37353515625,-5.3009033203125,11.1181640625
2021-09-22 21:23:30.212781,0.07958984375,-0.01220703125,0.92724609375,-0.5712890625,-5.218505859375,11.6510009765625
2021-09-22 21:23:30.222703,0.00634765625,0.00927734375,1.01416015625,-0.6536865234375,-5.0592041015625,12.1014404296875
2021-09-22 21:23:30.232722,0.02734375,-0.01806640625,0.728515625,-0.670166015625,-4.85595703125,12.4969482421875
2021-09-22 21:23:30.242655,0.111328125,-0.02099609375,0.8212890625,-0.604248046875,-4.6307373046875,12.8814697265625
2021-09-22 21:23:30.252581,0.1201171875,0.00439453125,1.05615234375,-0.4559326171875,-4.41650390625,13.326416015625
2021-09-22 21:23:30.262538,0.09521484375,-0.01171875,1.02294921875,-0.263671875,-4.1748046875,13.82080078125
2021-09-22 21:23:30.272546,0.07421875,-0.03076171875,0.9267578125,-0.0823974609375,-3.9056396484375,14.293212890625
2021-09-22 21:23:30.282420,0.06884765625,0.00830078125,0.97900390625,0.1043701171875,-3.658447265625,14.7491455078125
2021-09-22 21:23:30.292379,0.02099609375,-0.00439453125,1.05810546875,0.296630859375,-3.40576171875,15.150146484375
2021-09-22 21:23:30.302439,-0.0498046875,0.052734375,0.89208984375,0.4339599609375,-3.1475830078125,15.44677734375
2021-09-22 21:23:30.312058,0.00439453125,-0.14208984375,1.1484375,0.5877685546875,-2.8564453125,15.655517578125
2021-09-22 21:23:30.322070,0.037109375,-0.06591796875,0.86474609375,0.758056640625,-2.6422119140625,15.8258056640625
2021-09-22 21:23:30.332059,0.009765625,-0.03955078125,0.91162109375,0.8074951171875,-2.449951171875,15.9796142578125
2021-09-22 21:23:30.342029,-0.0859375,0.0322265625,0.85400390625,0.8349609375,-2.1588134765625,16.0125732421875
2021-09-22 21:23:30.351993,-0.07568359375,-0.01708984375,0.98876953125,0.889892578125,-1.834716796875,15.9246826171875
2021-09-22 21:23:30.362090,-0.015625,-0.0244140625,0.92724609375,0.999755859375,-1.5435791015625,15.732421875
2021-09-22 21:23:30.372053,0.01416015625,0.00146484375,0.87060546875,1.03271484375,-1.3128662109375,15.4962158203125
2021-09-22 21:23:30.381949,-0.03515625,0.01806640625,0.91943359375,1.021728515625,-1.109619140625,15.2545166015625
2021-09-22 21:23:30.391902,-0.078125,0.04248046875,0.890625,0.98876953125,-0.9173583984375,15.0457763671875
2021-09-22 21:23:30.401818,-0.056640625,0.06884765625,0.9306640625,0.933837890625,-0.714111328125,14.886474609375
2021-09-22 21:23:30.411782,-0.048828125,0.046875,0.8837890625,0.90087890625,-0.5438232421875,14.74365234375
2021-09-22 21:23:30.421738,-0.04248046875,0.02490234375,0.93017578125,0.8843994140625,-0.3900146484375,14.58984375
2021-09-22 21:23:30.431730,-0.04296875,0.0703125,0.96923828125,0.867919921875,-0.252685546875,14.403076171875
2021-09-22 21:23:30.441647,-0.0234375,0.09765625,0.9658203125,0.8843994140625,-0.1263427734375,14.1998291015625
2021-09-22 21:23:30.451627,-0.021484375,0.0927734375,0.90673828125,0.9613037109375,-0.032958984375,14.0020751953125
2021-09-22 21:23:30.461574,0.07421875,0.0703125,1.37060546875,1.0931396484375,0.0384521484375,13.831787109375
2021-09-22 21:23:30.471588,0.119140625,0.0146484375,1.1025390625,1.2744140625,0.1153564453125,13.6834716796875
2021-09-22 21:23:30.481539,0.05517578125,-0.0068359375,1.15380859375,1.285400390625,0.1153564453125,13.6285400390625
2021-09-22 21:23:30.491620,0.01416015625,0.0029296875,1.05029296875,1.1810302734375,0.120849609375,13.6724853515625
2021-09-22 21:23:30.501665,0.01611328125,0.08203125,1.28125,1.0986328125,0.1593017578125,13.7713623046875
2021-09-22 21:23:30.511599,0.001953125,0.0361328125,1.0,1.0821533203125,0.2197265625,13.8812255859375
2021-09-22 21:23:30.521549,0.12451171875,0.06787109375,1.31982421875,1.0601806640625,0.296630859375,14.1119384765625
2021-09-22 21:23:30.531311,0.1455078125,-0.013671875,1.12939453125,1.07666015625,0.32958984375,14.468994140625
2021-09-22 21:23:30.541330,0.02685546875,0.048828125,0.92724609375,1.0986328125,0.3131103515625,14.91943359375
2021-09-22 21:23:30.551332,0.14208984375,-0.12255859375,1.21875,1.1370849609375,0.2911376953125,15.3973388671875
2021-09-22 21:23:30.561326,0.138671875,-0.07861328125,1.470703125,1.0052490234375,0.1373291015625,15.809326171875
2021-09-22 21:23:30.571204,0.07373046875,0.04736328125,0.83447265625,0.692138671875,-0.120849609375,16.1444091796875
2021-09-22 21:23:30.581285,-0.1552734375,-0.0029296875,0.92431640625,0.4559326171875,-0.4833984375,16.3641357421875
2021-09-22 21:23:30.591168,-0.1025390625,0.025390625,0.740234375,0.3515625,-0.6536865234375,16.5728759765625
2021-09-22 21:23:30.601066,-0.0595703125,0.02978515625,0.7041015625,0.318603515625,-0.692138671875,16.9189453125
2021-09-22 21:23:30.611037,-0.05419921875,-0.05908203125,1.07177734375,0.3350830078125,-0.6976318359375,17.3089599609375
2021-09-22 21:23:30.620968,-0.01171875,-0.05517578125,0.78076171875,0.4449462890625,-0.7086181640625,17.6165771484375
2021-09-22 21:23:30.630918,0.037109375,-0.076171875,1.056640625,0.538330078125,-0.72509765625,17.8692626953125
2021-09-22 21:23:30.641514,0.025390625,-0.01025390625,1.05908203125,0.6646728515625,-0.7305908203125,18.0340576171875
2021-09-22 21:23:30.651029,-0.03564453125,0.1083984375,0.91162109375,0.76904296875,-0.7196044921875,18.094482421875
2021-09-22 21:23:30.660971,-0.046875,-0.107421875,1.11328125,0.889892578125,-0.714111328125,18.0889892578125
2021-09-22 21:23:30.670971,-0.02978515625,-0.07373046875,0.71240234375,0.9832763671875,-0.7965087890625,18.0340576171875
2021-09-22 21:23:30.680851,0.07080078125,0.0244140625,0.98974609375,0.94482421875,-0.85693359375,17.9296875
2021-09-22 21:23:30.690779,-0.04931640625,0.02783203125,0.82958984375,0.889892578125,-0.911865234375,17.7154541015625
2021-09-22 21:23:30.700751,-0.1025390625,-0.0283203125,0.9736328125,0.8514404296875,-0.955810546875,17.3968505859375
2021-09-22 21:23:30.710738,-0.05029296875,0.00341796875,0.97314453125,0.8514404296875,-0.98876953125,16.9683837890625
2021-09-22 21:23:30.720635,0.0439453125,0.0673828125,0.7998046875,0.81298828125,-1.0711669921875,16.4794921875
2021-09-22 21:23:30.730637,-0.1298828125,0.0087890625,1.13623046875,0.7745361328125,-1.2030029296875,15.97412109375
2021-09-22 21:23:30.740623,-0.25830078125,-0.017578125,0.84375,0.72509765625,-1.2689208984375,15.501708984375
2021-09-22 21:23:30.750688,-0.0400390625,0.126953125,1.033203125,0.5548095703125,-1.0931396484375,15.0677490234375
2021-09-22 21:23:30.760491,0.0068359375,-0.0478515625,1.08642578125,0.494384765625,-0.8294677734375,14.644775390625
2021-09-22 21:23:30.770488,-0.041015625,-0.04541015625,0.94091796875,0.41748046875,-0.494384765625,14.2108154296875
2021-09-22 21:23:30.780395,-0.150390625,-0.04541015625,0.66064453125,0.17578125,-0.208740234375,13.73291015625
2021-09-22 21:23:30.790487,-0.1015625,0.18603515625,0.8798828125,-0.2252197265625,0.1043701171875,13.2110595703125
2021-09-22 21:23:30.800638,-0.02880859375,0.00927734375,0.9111328125,-0.340576171875,0.362548828125,12.689208984375
2021-09-22 21:23:30.810686,-0.02978515625,0.0537109375,1.01416015625,-0.3460693359375,0.4888916015625,12.2662353515625
2021-09-22 21:23:30.820589,0.11181640625,0.14404296875,1.130859375,-0.208740234375,0.670166015625,11.9586181640625
2021-09-22 21:23:30.830586,0.04638671875,0.12109375,0.82568359375,0.0494384765625,0.736083984375,11.7718505859375
2021-09-22 21:23:30.840449,0.0498046875,0.11669921875,0.8935546875,0.362548828125,0.6646728515625,11.7608642578125
2021-09-22 21:23:30.850307,0.1875,0.06298828125,1.27001953125,0.59326171875,0.6536865234375,11.9366455078125
2021-09-22 21:23:30.860309,0.2236328125,0.06201171875,1.18701171875,0.845947265625,0.6646728515625,12.23876953125
2021-09-22 21:23:30.870306,0.29345703125,-0.0791015625,1.1640625,0.911865234375,0.758056640625,12.7166748046875
2021-09-22 21:23:30.880299,0.38916015625,-0.06982421875,1.20947265625,0.8843994140625,0.8734130859375,13.392333984375
2021-09-22 21:23:30.890334,0.32666015625,-0.12890625,1.15869140625,0.87890625,0.7965087890625,14.139404296875
2021-09-22 21:23:30.900336,0.20849609375,0.12255859375,0.9853515625,0.845947265625,0.560302734375,14.842529296875
2021-09-22 21:23:30.910150,0.0068359375,-0.00146484375,0.78564453125,0.76904296875,0.1373291015625,15.413818359375
2021-09-22 21:23:30.920221,-0.22216796875,0.03271484375,1.47900390625,0.7086181640625,-0.17578125,15.831298828125
2021-09-22 21:23:30.930074,-0.14404296875,-0.0009765625,0.5634765625,0.5987548828125,-0.3955078125,16.14990234375
2021-09-22 21:23:30.939967,-0.01025390625,0.0087890625,0.92626953125,0.5877685546875,-0.4559326171875,16.45751953125
2021-09-22 21:23:30.949985,0.02001953125,-0.03466796875,0.37255859375,0.59326171875,-0.3790283203125,16.8695068359375
2021-09-22 21:23:30.959889,-0.009765625,-0.01171875,0.34130859375,0.670166015625,-0.3131103515625,17.4627685546875
2021-09-22 21:23:30.969811,-0.0166015625,-0.00341796875,0.68115234375,0.7525634765625,-0.28564453125,18.10546875
2021-09-22 21:23:30.979719,0.017578125,0.00732421875,1.19091796875,0.7415771484375,-0.2911376953125,18.6602783203125
2021-09-22 21:23:30.989875,-0.0166015625,0.02490234375,1.41650390625,0.76904296875,-0.3131103515625,19.039306640625
2021-09-22 21:23:31.000007,-0.0185546875,0.12255859375,1.50439453125,0.8404541015625,-0.3076171875,19.259033203125
2021-09-22 21:23:31.009916,-0.00927734375,0.03369140625,1.900390625,0.85693359375,-0.318603515625,19.423828125
2021-09-22 21:23:31.019970,0.02197265625,-0.01513671875,1.11083984375,0.933837890625,-0.4119873046875,19.7918701171875
2021-09-22 21:23:31.029657,-0.001953125,-0.06787109375,0.978515625,0.966796875,-0.5108642578125,20.445556640625
2021-09-22 21:23:31.039653,0.0263671875,-0.01220703125,0.7900390625,1.0107421875,-0.5548095703125,21.2750244140625
2021-09-22 21:23:31.049609,0.01416015625,-0.0244140625,0.77587890625,1.087646484375,-0.6097412109375,22.2088623046875
2021-09-22 21:23:31.059544,-0.01904296875,-0.0791015625,0.6083984375,1.1700439453125,-0.7305908203125,23.280029296875
2021-09-22 21:23:31.069516,0.0517578125,0.13427734375,-0.240234375,1.2579345703125,-0.9063720703125,24.510498046875
2021-09-22 21:23:31.079473,-0.2109375,-0.17138671875,0.63037109375,1.34033203125,-1.07666015625,25.850830078125
2021-09-22 21:23:31.089487,-0.013671875,0.04736328125,1.4287109375,1.4117431640625,-1.2030029296875,27.2021484375
2021-09-22 21:23:31.099403,-0.05859375,0.1220703125,0.4716796875,1.285400390625,-1.2799072265625,28.2843017578125
2021-09-22 21:23:31.109208,-0.14306640625,0.2958984375,1.6025390625,1.12060546875,-1.153564453125,28.948974609375
2021-09-22 21:23:31.119312,0.12841796875,0.1474609375,1.5869140625,0.791015625,-0.7305908203125,29.1851806640625
2021-09-22 21:23:31.129274,-0.05908203125,0.1767578125,1.673828125,0.6427001953125,-0.2911376953125,28.9544677734375
2021-09-22 21:23:31.139855,-0.16796875,0.19140625,1.3095703125,0.538330078125,-0.0933837890625,28.1689453125
2021-09-22 21:23:31.149069,-0.11181640625,0.11279296875,0.81640625,0.4010009765625,-0.208740234375,27.0703125
2021-09-22 21:23:31.159160,0.04833984375,-0.130859375,0.35546875,0.4779052734375,-0.450439453125,25.894775390625
2021-09-22 21:23:31.169254,0.0810546875,-0.07421875,0.05615234375,0.7305908203125,-0.648193359375,24.6368408203125
2021-09-22 21:23:31.179290,0.06689453125,-0.0126953125,0.185546875,0.7525634765625,-0.823974609375,23.3514404296875
2021-09-22 21:23:31.189241,-0.04833984375,0.060546875,0.8974609375,0.6097412109375,-0.911865234375,22.313232421875
2021-09-22 21:23:31.199395,0.03271484375,-0.021484375,1.50634765625,0.4669189453125,-0.9722900390625,21.6815185546875
2021-09-22 21:23:31.209152,0.14013671875,0.21533203125,1.2744140625,0.494384765625,-1.0601806640625,21.4288330078125
2021-09-22 21:23:31.219150,0.13671875,0.11669921875,1.52294921875,0.4449462890625,-1.1590576171875,21.55517578125
2021-09-22 21:23:31.228875,0.25390625,0.431640625,2.45947265625,0.5438232421875,-1.12060546875,22.0880126953125
2021-09-22 21:23:31.239036,0.14013671875,-0.10595703125,1.513671875,0.63720703125,-0.955810546875,22.9449462890625
2021-09-22 21:23:31.248867,0.12548828125,-0.06591796875,1.3505859375,0.68115234375,-0.7855224609375,23.8897705078125
2021-09-22 21:23:31.258911,0.1083984375,-0.1123046875,1.392578125,0.802001953125,-0.7415771484375,24.6917724609375
2021-09-22 21:23:31.268706,0.078125,-0.109375,0.72412109375,0.9173583984375,-0.7415771484375,25.3564453125
2021-09-22 21:23:31.278747,0.03125,-0.0322265625,0.54443359375,0.911865234375,-0.780029296875,25.9002685546875
2021-09-22 21:23:31.288710,-0.015625,-0.0341796875,0.52001953125,0.8514404296875,-0.8514404296875,26.3726806640625
2021-09-22 21:23:31.298782,-0.11376953125,-0.03955078125,0.33935546875,0.823974609375,-0.9283447265625,26.9000244140625
2021-09-22 21:23:31.308772,-0.02685546875,-0.05029296875,0.03759765625,0.8734130859375,-0.9832763671875,27.5811767578125
2021-09-22 21:23:31.318916,0.00732421875,0.0546875,0.14501953125,0.9283447265625,-0.966796875,28.3721923828125
2021-09-22 21:23:31.328673,0.05029296875,0.041015625,1.0439453125,0.9063720703125,-0.8514404296875,29.080810546875
2021-09-22 21:23:31.338617,0.0068359375,0.03564453125,1.509765625,0.9942626953125,-0.7305908203125,29.5477294921875
2021-09-22 21:23:31.348606,-0.06591796875,0.1962890625,1.7294921875,1.0821533203125,-0.72509765625,29.805908203125
2021-09-22 21:23:31.358596,-0.044921875,-0.03515625,2.20751953125,1.0491943359375,-0.7415771484375,29.99267578125
2021-09-22 21:23:31.368536,0.00537109375,-0.0322265625,1.59375,1.1920166015625,-0.758056640625,30.322265625
2021-09-22 21:23:31.378432,0.0771484375,-0.00732421875,1.36865234375,1.142578125,-0.72509765625,30.91552734375
2021-09-22 21:23:31.388475,0.0439453125,-0.00146484375,0.94775390625,1.0986328125,-0.5987548828125,31.7230224609375
2021-09-22 21:23:31.398788,-0.00146484375,-0.0068359375,0.84765625,1.12060546875,-0.4833984375,32.6678466796875
2021-09-22 21:23:31.408465,-0.0185546875,-0.04638671875,0.435546875,1.065673828125,-0.4339599609375,33.72802734375
2021-09-22 21:23:31.418521,-0.09130859375,0.029296875,-0.28857421875,0.999755859375,-0.3955078125,34.903564453125
2021-09-22 21:23:31.428404,0.08056640625,-0.0302734375,0.587890625,174.19921875,-0.263671875,36.1614990234375
2021-09-22 21:23:31.438374,0.373046875,-0.0615234375,0.8173828125,-2.9443359375,-0.5328369140625,34.947509765625
2021-09-22 21:23:31.448241,0.11865234375,-0.09326171875,0.9248046875,-2.9827880859375,-0.52734375,35.892333984375
2021-09-22 21:23:31.458131,-0.0439453125,-0.1005859375,1.55615234375,-2.9388427734375,-0.6756591796875,36.40869140625
2021-09-22 21:23:31.468088,0.0205078125,-0.0361328125,1.5947265625,-2.98828125,-0.85693359375,36.38671875
2021-09-22 21:23:31.478065,-0.00634765625,-0.0048828125,1.4306640625,-3.01025390625,-0.867919921875,35.760498046875
2021-09-22 21:23:31.487965,-0.0302734375,0.103515625,1.201171875,-3.01025390625,-0.7855224609375,34.6673583984375
2021-09-22 21:23:31.497998,-0.11376953125,0.11083984375,0.7119140625,-3.1365966796875,-0.823974609375,33.3929443359375
2021-09-22 21:23:31.507863,-0.1337890625,0.04638671875,0.32373046875,-3.251953125,-0.9503173828125,32.1405029296875
2021-09-22 21:23:31.518053,-0.12255859375,0.02197265625,-0.107421875,-3.2464599609375,-1.12060546875,30.8770751953125
2021-09-22 21:23:31.527918,0.017578125,0.07763671875,0.2392578125,168.4368896484375,-1.3238525390625,29.652099609375
2021-09-22 21:23:31.538091,0.14892578125,0.05908203125,0.853515625,17.9736328125,-1.07666015625,30.56396484375
2021-09-22 21:23:31.547712,0.07470703125,0.033203125,1.3095703125,18.10546875,-0.90087890625,30.05859375
2021-09-22 21:23:31.557805,0.107421875,-0.10205078125,0.95166015625,18.12744140625,-0.8074951171875,29.90478515625
2021-09-22 21:23:31.567701,0.07470703125,-0.0400390625,1.7578125,18.138427734375,-0.8404541015625,30.12451171875
2021-09-22 21:23:31.577547,-0.080078125,0.41455078125,2.22021484375,18.182373046875,-1.065673828125,30.772705078125
2021-09-22 21:23:31.587677,-0.0908203125,-0.06640625,1.8837890625,18.248291015625,-1.2908935546875,31.7230224609375
2021-09-22 21:23:31.597934,-0.052734375,-0.1689453125,1.193359375,18.2537841796875,-1.494140625,32.6513671875
2021-09-22 21:23:31.607806,-0.115234375,-0.08056640625,1.037109375,18.2537841796875,-1.7633056640625,33.3380126953125
2021-09-22 21:23:31.617697,-0.02685546875,-0.0419921875,1.07421875,18.30322265625,-1.966552734375,33.848876953125
2021-09-22 21:23:31.627646,-0.02587890625,0.0,0.48046875,18.2427978515625,-2.1368408203125,34.2388916015625
2021-09-22 21:23:31.637912,0.00146484375,0.00048828125,0.33154296875,18.193359375,-2.2576904296875,34.6014404296875
2021-09-22 21:23:31.647481,-0.029296875,-0.0126953125,0.3095703125,18.1549072265625,-2.4224853515625,35.057373046875
2021-09-22 21:23:31.657457,0.0087890625,-0.04052734375,0.06591796875,18.17138671875,-2.6312255859375,35.7000732421875
2021-09-22 21:23:31.667529,0.0009765625,0.044921875,0.09814453125,18.182373046875,-2.867431640625,36.463623046875
2021-09-22 21:23:31.677512,0.037109375,0.00634765625,1.0419921875,18.160400390625,-3.021240234375,37.144775390625
2021-09-22 21:23:31.687267,0.0126953125,-0.0087890625,1.52294921875,18.2208251953125,-3.109130859375,37.6007080078125
2021-09-22 21:23:31.697252,0.0048828125,0.14990234375,1.5517578125,18.3416748046875,-3.1805419921875,37.81494140625
2021-09-22 21:23:31.707222,0.00830078125,0.06787109375,2.4091796875,18.3636474609375,-3.2958984375,37.935791015625
2021-09-22 21:23:31.717238,0.005859375,-0.013671875,1.58447265625,18.4625244140625,-3.4332275390625,38.2159423828125
2021-09-22 21:23:31.727216,0.080078125,-0.001953125,1.28173828125,18.5284423828125,-3.6639404296875,38.759765625
2021-09-22 21:23:31.737170,-0.02685546875,-0.0322265625,0.94677734375,18.5064697265625,-3.9495849609375,39.5343017578125
2021-09-22 21:23:31.747045,-0.0302734375,0.009765625,0.8125,18.533935546875,-4.2242431640625,40.440673828125
2021-09-22 21:23:31.756976,0.0439453125,0.0361328125,0.35546875,18.4515380859375,-4.5263671875,41.4349365234375
2021-09-22 21:23:31.767047,-0.1279296875,-0.1572265625,0.30712890625,18.3251953125,-4.844970703125,42.5390625
2021-09-22 21:23:31.777061,-0.22021484375,0.08203125,0.42822265625,18.2208251953125,-5.1580810546875,43.714599609375
2021-09-22 21:23:31.786996,0.2294921875,0.13671875,0.1064453125,17.7978515625,-5.3338623046875,44.923095703125
2021-09-22 21:23:31.797277,0.40283203125,0.02490234375,1.4345703125,17.435302734375,-5.44921875,45.955810546875
2021-09-22 21:23:31.807031,-0.0126953125,-0.13671875,1.431640625,17.4407958984375,-5.614013671875,46.571044921875
2021-09-22 21:23:31.816999,0.02392578125,0.017578125,1.51318359375,17.5067138671875,-5.7843017578125,46.64794921875
2021-09-22 21:23:31.826911,-0.03466796875,-0.0263671875,1.48095703125,17.3748779296875,-5.7568359375,46.1700439453125
2021-09-22 21:23:31.836674,0.0537109375,0.0009765625,1.3115234375,17.5396728515625,-5.4437255859375,45.2252197265625
2021-09-22 21:23:31.846814,-0.05859375,0.078125,0.7421875,17.6165771484375,-5.020751953125,44.033203125
2021-09-22 21:23:31.856703,-0.154296875,0.08349609375,0.4541015625,17.4957275390625,-4.6856689453125,42.82470703125
2021-09-22 21:23:31.866806,-0.15185546875,0.08447265625,-0.1171875,17.501220703125,-4.3670654296875,41.6107177734375
2021-09-22 21:23:31.876919,-0.05712890625,0.05029296875,0.3671875,17.611083984375,-4.0594482421875,40.4241943359375
2021-09-22 21:23:31.886634,0.1103515625,0.07470703125,0.7685546875,17.852783203125,-3.7847900390625,39.5343017578125
2021-09-22 21:23:31.896471,0.05517578125,0.064453125,1.2744140625,18.0120849609375,-3.570556640625,39.0509033203125
2021-09-22 21:23:31.906592,-0.0439453125,0.052734375,0.9013671875,18.0889892578125,-3.3892822265625,38.9410400390625
2021-09-22 21:23:31.916484,-0.07958984375,0.14111328125,1.7763671875,18.160400390625,-3.3673095703125,39.166259765625
2021-09-22 21:23:31.926532,0.0224609375,-0.31787109375,1.72705078125,18.1878662109375,-3.482666015625,39.83642578125
2021-09-22 21:23:31.936410,-0.00537109375,0.05322265625,2.1884765625,18.10546875,-3.790283203125,40.7647705078125
2021-09-22 21:23:31.946491,-0.03955078125,0.0078125,1.4306640625,18.094482421875,-4.1473388671875,41.6546630859375
2021-09-22 21:23:31.956318,0.00244140625,0.0947265625,1.02392578125,18.03955078125,-4.383544921875,42.352294921875
2021-09-22 21:23:31.966324,-0.04833984375,-0.009765625,1.06591796875,17.9461669921875,-4.6197509765625,42.8521728515625
2021-09-22 21:23:31.976175,-0.05029296875,0.01904296875,0.5439453125,17.940673828125,-4.8284912109375,43.209228515625
2021-09-22 21:23:31.986225,-0.06591796875,0.06494140625,0.318359375,17.8802490234375,-5.0042724609375,43.5552978515625
2021-09-22 21:23:31.996263,-0.07470703125,0.02001953125,0.23974609375,17.8143310546875,-5.1470947265625,44.022216796875
2021-09-22 21:23:32.006375,-0.02490234375,-0.0361328125,0.1728515625,17.7923583984375,-5.350341796875,44.681396484375
2021-09-22 21:23:32.016298,-0.001953125,0.00830078125,0.05810546875,17.808837890625,-5.5810546875,45.450439453125
2021-09-22 21:23:32.026158,0.03564453125,0.005859375,0.9677734375,17.764892578125,-5.7403564453125,46.142578125
2021-09-22 21:23:32.036069,0.0390625,-0.009765625,1.43701171875,17.81982421875,-5.8447265625,46.60400390625
2021-09-22 21:23:32.045929,0.0185546875,0.13671875,1.54443359375,17.9241943359375,-5.9326171875,46.812744140625
2021-09-22 21:23:32.056039,0.0146484375,0.06689453125,2.40625,17.95166015625,-6.0205078125,46.93359375
2021-09-22 21:23:32.065985,0.01171875,-0.0126953125,1.6494140625,18.072509765625,-6.141357421875,47.2027587890625
2021-09-22 21:23:32.076015,0.1005859375,-0.03369140625,1.27685546875,18.1329345703125,-6.3720703125,47.735595703125
2021-09-22 21:23:32.085893,-0.04248046875,-0.04541015625,0.96875,18.0999755859375,-6.6741943359375,48.4991455078125
2021-09-22 21:23:32.095829,-0.01025390625,0.04541015625,0.8115234375,18.094482421875,-6.954345703125,49.39453125
2021-09-22 21:23:32.105798,0.11962890625,-0.0537109375,0.39208984375,17.95166015625,-7.2344970703125,50.372314453125
2021-09-22 21:23:32.115880,-0.064453125,-0.18310546875,0.154296875,17.808837890625,-7.547607421875,51.4599609375
2021-09-22 21:23:32.125903,-0.21923828125,-0.11181640625,-0.02294921875,17.633056640625,-7.8497314453125,52.62451171875
2021-09-22 21:23:32.136399,0.33251953125,0.1953125,0.48974609375,17.1221923828125,-8.031005859375,53.800048828125
2021-09-22 21:23:32.145924,0.4990234375,0.0048828125,1.0126953125,16.600341796875,-8.118896484375,54.8712158203125
2021-09-22 21:23:32.155837,-0.0205078125,-0.1435546875,1.26220703125,16.5838623046875,-8.2562255859375,55.546875
2021-09-22 21:23:32.165530,-0.01904296875,-0.04296875,1.33935546875,16.6717529296875,-8.4429931640625,55.7171630859375
2021-09-22 21:23:32.175575,-0.03369140625,-0.03125,1.68896484375,16.4959716796875,-8.470458984375,55.360107421875
2021-09-22 21:23:32.185518,0.041015625,-0.04052734375,1.19970703125,16.666259765625,-8.2342529296875,54.5196533203125
2021-09-22 21:23:32.195455,-0.0888671875,0.099609375,0.83154296875,16.8035888671875,-7.855224609375,53.3770751953125
2021-09-22 21:23:32.205757,-0.22265625,0.07861328125,0.50830078125,16.72119140625,-7.5091552734375,52.1795654296875
2021-09-22 21:23:32.215810,-0.19287109375,0.12060546875,0.13818359375,16.7596435546875,-7.218017578125,51.0040283203125
2021-09-22 21:23:32.225758,-0.07763671875,0.05517578125,0.3779296875,16.9244384765625,-6.9268798828125,49.85595703125
2021-09-22 21:23:32.235401,0.13037109375,0.08203125,0.755859375,17.2320556640625,-6.6522216796875,48.9825439453125
2021-09-22 21:23:32.245250,0.08984375,0.0869140625,1.30517578125,17.413330078125,-6.416015625,48.53759765625
2021-09-22 21:23:32.255260,-0.02587890625,0.11181640625,0.9169921875,17.479248046875,-6.207275390625,48.5101318359375
2021-09-22 21:23:32.265230,-0.07080078125,0.0263671875,1.93310546875,17.5341796875,-6.163330078125,48.8232421875
2021-09-22 21:23:32.275205,0.0791015625,-0.3525390625,1.802734375,17.4957275390625,-6.26220703125,49.5428466796875
2021-09-22 21:23:32.285223,0.0009765625,0.06787109375,1.99267578125,17.3748779296875,-6.558837890625,50.4931640625
2021-09-22 21:23:32.295250,-0.01171875,0.03564453125,1.3515625,17.2979736328125,-6.9158935546875,51.383056640625
2021-09-22 21:23:32.305037,-0.00732421875,0.13916015625,1.03173828125,17.193603515625,-7.1905517578125,52.0751953125
2021-09-22 21:23:32.315128,-0.03759765625,-0.00048828125,0.89306640625,17.07275390625,-7.4267578125,52.569580078125
2021-09-22 21:23:32.325078,-0.029296875,0.0283203125,0.49951171875,17.039794921875,-7.62451171875,52.93212890625
2021-09-22 21:23:32.335045,-0.03857421875,0.03564453125,0.36083984375,16.973876953125,-7.789306640625,53.28369140625
2021-09-22 21:23:32.344951,-0.083984375,0.0458984375,0.2587890625,16.89697265625,-7.93212890625,53.7451171875
2021-09-22 21:23:32.355099,-0.04248046875,-0.052734375,0.14111328125,16.85302734375,-8.118896484375,54.3988037109375
2021-09-22 21:23:32.365114,-0.0244140625,0.00830078125,0.09326171875,16.842041015625,-8.3551025390625,55.1678466796875
2021-09-22 21:23:32.374833,0.03466796875,-0.013671875,0.916015625,16.7376708984375,-8.525390625,55.8544921875
2021-09-22 21:23:32.384858,0.03076171875,-0.00390625,1.443359375,16.76513671875,-8.624267578125,56.31591796875
2021-09-22 21:23:32.395020,0.0263671875,0.12744140625,1.5849609375,16.8255615234375,-8.67919921875,56.5301513671875
2021-09-22 21:23:32.405124,0.029296875,0.08349609375,2.43115234375,16.820068359375,-8.7286376953125,56.6510009765625
2021-09-22 21:23:32.415139,0.01806640625,-0.0078125,1.6767578125,16.864013671875,-8.8055419921875,56.9091796875
2021-09-22 21:23:32.424904,0.01806640625,-0.0078125,1.6767578125,16.8695068359375,-8.9923095703125,57.4310302734375
2021-09-22 21:23:32.434823,0.04345703125,0.0048828125,1.3740234375,16.8695068359375,-9.1790771484375,57.952880859375
2021-09-22 21:23:32.444745,0.02880859375,-0.01171875,0.96875,16.7431640625,-9.415283203125,58.73291015625
2021-09-22 21:23:32.454534,0.0439453125,0.005859375,0.65087890625,16.6552734375,-9.6295166015625,59.65576171875
2021-09-22 21:23:32.464639,0.04052734375,-0.037109375,0.51318359375,16.5234375,-9.9041748046875,60.6884765625
2021-09-22 21:23:32.474584,-0.04345703125,-0.146484375,0.3662109375,16.3311767578125,-10.26123046875,61.820068359375
2021-09-22 21:23:32.484498,-0.1865234375,-0.09521484375,-0.1416015625,16.116943359375,-10.634765625,63.017578125
2021-09-22 21:23:32.494740,0.23779296875,0.10107421875,0.50634765625,-146.0797119140625,-10.8984375,64.248046875
2021-09-22 21:23:32.504621,0.4013671875,0.0302734375,1.27294921875,11.2884521484375,-10.43701171875,63.2427978515625
2021-09-22 21:23:32.514544,0.01220703125,-0.11572265625,1.23291015625,11.1785888671875,-10.5084228515625,63.9239501953125
2021-09-22 21:23:32.524358,0.00439453125,-0.01806640625,1.470703125,11.25,-10.6292724609375,64.039306640625
2021-09-22 21:23:32.534238,-0.0546875,-0.02392578125,1.53662109375,11.1456298828125,-10.6512451171875,63.5614013671875
2021-09-22 21:23:32.544316,0.0048828125,-0.005859375,1.279296875,11.3543701171875,-10.48095703125,62.578125
2021-09-22 21:23:32.554307,-0.0361328125,0.10205078125,0.8125,11.53564453125,-10.21728515625,61.336669921875
2021-09-22 21:23:32.564275,-0.14208984375,0.0625,0.4873046875,11.5576171875,-10.0030517578125,60.0787353515625
2021-09-22 21:23:32.574193,-0.16845703125,0.0849609375,-0.0234375,11.71142578125,-9.788818359375,58.8262939453125
2021-09-22 21:23:32.584288,-0.07373046875,0.05224609375,0.3203125,11.9366455078125,-9.580078125,57.59033203125
2021-09-22 21:23:32.594188,0.072265625,0.05859375,0.7373046875,12.2607421875,-9.33837890625,56.6400146484375
2021-09-22 21:23:32.603981,0.09033203125,0.0771484375,1.31005859375,12.491455078125,-9.1131591796875,56.107177734375
2021-09-22 21:23:32.613863,-0.0693359375,0.12890625,0.818359375,12.6287841796875,-8.8934326171875,55.9698486328125
2021-09-22 21:23:32.623681,-0.00439453125,-0.1337890625,1.9189453125,12.6947021484375,-8.7835693359375,56.2005615234375
2021-09-22 21:23:32.634242,0.03173828125,-0.20654296875,1.998046875,12.645263671875,-8.76708984375,56.88720703125
2021-09-22 21:23:32.643603,-0.03955078125,-0.07080078125,1.93359375,12.4530029296875,-8.975830078125,57.8485107421875
2021-09-22 21:23:32.653580,-0.056640625,0.0439453125,1.45458984375,12.3321533203125,-9.261474609375,58.7823486328125
2021-09-22 21:23:32.663449,-0.03076171875,0.10595703125,1.0712890625,12.1728515625,-9.4921875,59.5184326171875
2021-09-22 21:23:32.673412,-0.046875,0.06884765625,0.916015625,11.9970703125,-9.68994140625,60.05126953125
2021-09-22 21:23:32.683681,-0.04345703125,0.02880859375,0.58447265625,11.9366455078125,-9.854736328125,60.435791015625
2021-09-22 21:23:32.693812,-0.0341796875,0.03173828125,0.353515625,11.865234375,-9.964599609375,60.809326171875
2021-09-22 21:23:32.703893,-0.06689453125,0.04443359375,0.310546875,11.7938232421875,-10.052490234375,61.28173828125
2021-09-22 21:23:32.713678,-0.01611328125,-0.06640625,0.171875,11.7333984375,-10.1678466796875,61.94091796875
2021-09-22 21:23:32.723863,-0.01513671875,0.0078125,0.08935546875,11.6729736328125,-10.3436279296875,62.73193359375
2021-09-22 21:23:32.733723,0.04052734375,-0.0205078125,0.8291015625,11.524658203125,-10.4644775390625,63.446044921875
2021-09-22 21:23:32.743641,0.0458984375,0.00048828125,1.42236328125,11.524658203125,-10.5413818359375,63.9239501953125
2021-09-22 21:23:32.753684,0.04443359375,0.10595703125,1.64013671875,11.5576171875,-10.5853271484375,64.149169921875
2021-09-22 21:23:32.763571,0.03125,0.11181640625,2.37548828125,11.5631103515625,-10.6292724609375,64.27001953125
2021-09-22 21:23:32.773661,0.01953125,0.0166015625,1.755859375,11.6015625,-10.6951904296875,64.51171875
2021-09-22 21:23:32.783551,0.017578125,0.02587890625,1.36279296875,11.5960693359375,-10.865478515625,65.028076171875
2021-09-22 21:23:32.793540,0.02978515625,-0.00390625,1.041015625,11.4532470703125,-11.07421875,65.80810546875
2021-09-22 21:23:32.803466,0.052734375,0.02099609375,0.59619140625,11.337890625,-11.25,66.73095703125
2021-09-22 21:23:32.813423,0.064453125,-0.01904296875,0.56103515625,11.173095703125,-11.4642333984375,67.774658203125
2021-09-22 21:23:32.823280,-0.02783203125,-0.13671875,0.1787109375,10.975341796875,-11.7388916015625,68.92822265625
2021-09-22 21:23:32.833493,-0.1298828125,-0.10791015625,0.32373046875,10.711669921875,-12.0135498046875,70.1531982421875
2021-09-22 21:23:32.843559,0.28125,0.1083984375,0.8583984375,10.2227783203125,-12.1728515625,71.3946533203125
2021-09-22 21:23:32.853328,0.357421875,0.00830078125,0.515625,9.6185302734375,-12.1563720703125,72.53173828125
2021-09-22 21:23:32.863502,0.05224609375,-0.15576171875,1.20703125,9.4207763671875,-12.095947265625,73.2952880859375
2021-09-22 21:23:32.873539,-0.068359375,-0.07763671875,1.44384765625,9.4976806640625,-12.161865234375,73.531494140625
2021-09-22 21:23:32.883438,-0.08642578125,-0.029296875,1.619140625,9.3878173828125,-12.2332763671875,73.19091796875
2021-09-22 21:23:32.893407,-0.09228515625,-0.0322265625,1.212890625,9.5416259765625,-12.2003173828125,72.3065185546875
2021-09-22 21:23:32.903174,-0.04541015625,0.0654296875,0.94140625,9.810791015625,-12.0245361328125,71.092529296875
2021-09-22 21:23:32.913061,-0.1044921875,0.099609375,0.55712890625,9.90966796875,-11.8267822265625,69.8291015625
2021-09-22 21:23:32.923091,-0.16943359375,0.0986328125,0.3193359375,10.1019287109375,-11.6290283203125,68.5821533203125
2021-09-22 21:23:32.933362,-0.1328125,0.0791015625,0.14501953125,10.3436279296875,-11.4202880859375,67.357177734375
2021-09-22 21:23:32.943350,0.04296875,0.09130859375,0.775390625,10.65673828125,-11.2060546875,66.368408203125
2021-09-22 21:23:32.952911,0.154296875,0.1005859375,1.25439453125,10.9478759765625,-10.9588623046875,65.8026123046875
2021-09-22 21:23:32.963018,-0.03271484375,0.1083984375,0.81884765625,11.1126708984375,-10.7171630859375,65.654296875
2021-09-22 21:23:32.972862,0.03125,-0.23681640625,1.7431640625,11.2005615234375,-10.557861328125,65.9124755859375
2021-09-22 21:23:32.982912,0.060546875,-0.2255859375,1.990234375,11.1676025390625,-10.458984375,66.59912109375
2021-09-22 21:23:32.992873,-0.01953125,0.02099609375,2.1376953125,10.8544921875,-10.65673828125,67.56591796875
2021-09-22 21:23:33.002775,-0.02685546875,-0.0234375,1.37841796875,10.7611083984375,-10.9588623046875,68.543701171875
2021-09-22 21:23:33.012671,-0.04443359375,0.08984375,1.15087890625,10.546875,-11.2445068359375,69.3182373046875
2021-09-22 21:23:33.022709,-0.0556640625,0.0986328125,0.826171875,10.3216552734375,-11.436767578125,69.8785400390625
2021-09-22 21:23:33.032735,-0.08349609375,0.03955078125,0.677734375,10.228271484375,-11.6015625,70.2685546875
2021-09-22 21:23:33.042683,-0.00537109375,0.025390625,0.44775390625,10.17333984375,-11.6839599609375,70.631103515625
2021-09-22 21:23:33.052662,-0.02490234375,-0.005859375,0.400390625,10.1239013671875,-11.7388916015625,71.08154296875
2021-09-22 21:23:33.062597,0.02978515625,-0.0771484375,0.19921875,10.0689697265625,-11.8157958984375,71.7242431640625
2021-09-22 21:23:33.072632,0.01416015625,-0.00537109375,0.1513671875,9.9755859375,-11.953125,72.509765625
2021-09-22 21:23:33.082755,0.0595703125,-0.0400390625,0.76220703125,9.7998046875,-12.06298828125,73.23486328125
2021-09-22 21:23:33.092582,0.060546875,-0.00341796875,1.37255859375,9.744873046875,-12.15087890625,73.7237548828125
2021-09-22 21:23:33.102701,0.0458984375,0.0966796875,1.646484375,9.744873046875,-12.19482421875,73.9599609375
2021-09-22 21:23:33.112490,0.02001953125,0.11669921875,2.3017578125,9.7393798828125,-12.227783203125,74.080810546875
2021-09-22 21:23:33.122570,0.0029296875,0.00927734375,1.77490234375,9.7393798828125,-12.2772216796875,74.3115234375
2021-09-22 21:23:33.133042,-0.00341796875,0.02392578125,1.3115234375,9.6844482421875,-12.4310302734375,74.81689453125
2021-09-22 21:23:33.142272,0.015625,0.01416015625,1.08544921875,9.4921875,-12.5958251953125,75.6024169921875
2021-09-22 21:23:33.152254,0.029296875,0.0400390625,0.5771484375,9.29443359375,-12.72216796875,76.541748046875
2021-09-22 21:23:33.162232,0.01318359375,-0.001953125,0.60546875,9.0582275390625,-12.8814697265625,77.6019287109375
2021-09-22 21:23:33.172306,0.09033203125,-0.09033203125,-0.041015625,8.7945556640625,-13.095703125,78.782958984375
2021-09-22 21:23:33.182309,-0.2158203125,0.0126953125,0.43603515625,8.4979248046875,-13.348388671875,80.0518798828125
2021-09-22 21:23:33.192315,0.02685546875,0.06298828125,0.54541015625,8.0694580078125,-13.4417724609375,81.38671875
2021-09-22 21:23:33.202067,0.2783203125,-0.00732421875,1.24951171875,7.62451171875,-13.502197265625,82.5347900390625
2021-09-22 21:23:33.212051,0.05517578125,-0.09716796875,1.3935546875,7.4212646484375,-13.546142578125,83.287353515625
2021-09-22 21:23:33.222034,0.0,0.005859375,1.70703125,7.4267578125,-13.60107421875,83.485107421875
2021-09-22 21:23:33.231345,-0.087890625,0.0009765625,1.576171875,7.3992919921875,-13.6395263671875,83.023681640625
2021-09-22 21:23:33.242011,-0.0908203125,0.0400390625,1.30126953125,7.6300048828125,-13.568115234375,81.9854736328125
2021-09-22 21:23:33.251793,-0.08642578125,0.08251953125,0.90380859375,7.88818359375,-13.4417724609375,80.672607421875
2021-09-22 21:23:33.261944,-0.1162109375,0.05419921875,0.5302734375,8.0584716796875,-13.304443359375,79.3597412109375
2021-09-22 21:23:33.272079,-0.17041015625,0.06640625,0.0380859375,8.3111572265625,-13.150634765625,78.046875
2021-09-22 21:23:33.282280,-0.0673828125,0.0712890625,0.20703125,8.61328125,-12.9803466796875,76.7340087890625
2021-09-22 21:23:33.292169,0.0576171875,0.0517578125,0.67822265625,8.9923095703125,-12.76611328125,75.684814453125
2021-09-22 21:23:33.301729,0.13671875,0.078125,1.30322265625,9.2999267578125,-12.5244140625,75.0531005859375
2021-09-22 21:23:33.311734,0.03173828125,0.00244140625,0.93359375,9.4647216796875,-12.2882080078125,74.77294921875
2021-09-22 21:23:33.321697,0.10595703125,-0.29443359375,1.2763671875,9.55810546875,-12.1728515625,74.86083984375
2021-09-22 21:23:33.331603,-0.0634765625,0.32177734375,2.17822265625,9.5745849609375,-12.117919921875,75.4156494140625
2021-09-22 21:23:33.341662,-0.11669921875,-0.2275390625,2.16650390625,9.239501953125,-12.249755859375,76.343994140625
2021-09-22 21:23:33.351563,-0.15673828125,-0.123046875,1.59228515625,9.129638671875,-12.4365234375,77.34375
2021-09-22 21:23:33.361540,-0.01953125,-0.03515625,1.23828125,8.94287109375,-12.601318359375,78.1402587890625
2021-09-22 21:23:33.371401,-0.0322265625,0.06494140625,1.14599609375,8.7176513671875,-12.7276611328125,78.7225341796875
2021-09-22 21:23:33.381470,-0.0712890625,0.01904296875,0.6826171875,8.6297607421875,-12.8814697265625,79.1180419921875
2021-09-22 21:23:33.391465,-0.01171875,0.0712890625,0.35693359375,8.5638427734375,-12.9913330078125,79.4805908203125
2021-09-22 21:23:33.401504,-0.00830078125,0.04736328125,0.3984375,8.4320068359375,-13.062744140625,79.9420166015625
2021-09-22 21:23:33.411437,0.01953125,-0.03662109375,0.23486328125,8.3056640625,-13.150634765625,80.595703125
2021-09-22 21:23:33.421388,0.00048828125,-0.0107421875,0.10546875,8.2122802734375,-13.282470703125,81.40869140625
2021-09-22 21:23:33.431426,0.02685546875,-0.00830078125,0.74169921875,8.0419921875,-13.3758544921875,82.177734375
2021-09-22 21:23:33.441342,0.064453125,-0.03369140625,1.2958984375,7.9705810546875,-13.42529296875,82.716064453125
2021-09-22 21:23:33.451327,0.0400390625,0.08837890625,1.69091796875,8.0145263671875,-13.46923828125,82.9852294921875
2021-09-22 21:23:33.461229,0.00390625,0.13330078125,2.265625,7.987060546875,-13.53515625,83.1170654296875
2021-09-22 21:23:33.471469,0.00048828125,0.02001953125,1.888671875,8.009033203125,-13.60107421875,83.3367919921875
2021-09-22 21:23:33.481363,0.00537109375,0.03759765625,1.36767578125,7.9925537109375,-13.7493896484375,83.8421630859375
2021-09-22 21:23:33.491237,0.03564453125,0.005859375,1.13134765625,7.8057861328125,-13.9306640625,84.61669921875
2021-09-22 21:23:33.501202,0.00439453125,0.0126953125,0.6318359375,7.6519775390625,-14.073486328125,85.550537109375
2021-09-22 21:23:33.511080,-0.00341796875,0.029296875,0.630859375,7.4432373046875,-14.227294921875,86.59423828125
2021-09-22 21:23:33.521030,-0.10546875,-0.068359375,0.36083984375,7.14111328125,-14.4140625,87.7587890625
2021-09-22 21:23:33.531100,-0.1591796875,-0.126953125,0.09716796875,6.83349609375,-14.5953369140625,88.9947509765625
2021-09-22 21:23:33.541179,0.30029296875,0.107421875,0.72216796875,6.339111328125,-14.6282958984375,90.230712890625
2021-09-22 21:23:33.550974,0.37646484375,0.02392578125,0.71044921875,5.7073974609375,-14.4854736328125,91.351318359375
2021-09-22 21:23:33.560960,0.04931640625,-0.1015625,1.16015625,5.4656982421875,-14.3426513671875,92.1038818359375
2021-09-22 21:23:33.570985,-0.025390625,-0.037109375,1.4326171875,5.537109375,-14.3865966796875,92.340087890625
2021-09-22 21:23:33.580946,-0.0673828125,0.001953125,1.73095703125,5.4327392578125,-14.4854736328125,92.0050048828125
2021-09-22 21:23:33.590882,-0.0439453125,-0.0029296875,1.287109375,5.635986328125,-14.4854736328125,91.12060546875
2021-09-22 21:23:33.600817,-0.03466796875,0.080078125,0.9501953125,5.9490966796875,-14.3756103515625,89.901123046875
2021-09-22 21:23:33.610728,-0.15673828125,0.09033203125,0.580078125,6.1083984375,-14.271240234375,88.6212158203125
2021-09-22 21:23:33.620659,-0.2138671875,0.1064453125,0.24365234375,6.339111328125,-14.1888427734375,87.3687744140625
2021-09-22 21:23:33.631522,-0.1025390625,0.0556640625,0.220703125,6.6192626953125,-14.1009521484375,86.1273193359375
2021-09-22 21:23:33.640556,0.08837890625,0.072265625,0.63623046875,6.976318359375,-13.985595703125,85.1165771484375
2021-09-22 21:23:33.650554,0.15185546875,0.07275390625,1.27099609375,7.283935546875,-13.809814453125,84.5452880859375
2021-09-22 21:23:33.660821,0.07177734375,0.00634765625,1.0107421875,7.4267578125,-13.634033203125,84.3914794921875
2021-09-22 21:23:33.670717,0.091796875,-0.1552734375,1.3125,7.437744140625,-13.53515625,84.627685546875
2021-09-22 21:23:33.680761,-0.0654296875,0.26611328125,2.15283203125,7.349853515625,-13.4912109375,85.2978515625
2021-09-22 21:23:33.690648,-0.02685546875,-0.275390625,1.884765625,7.0806884765625,-13.5845947265625,86.297607421875
2021-09-22 21:23:33.700467,-0.09716796875,-0.0185546875,1.39306640625,6.8939208984375,-13.7384033203125,87.3138427734375
2021-09-22 21:23:33.710402,0.05712890625,-0.02880859375,1.24169921875,6.7071533203125,-13.8427734375,88.1048583984375
2021-09-22 21:23:33.720338,-0.03125,0.02734375,1.19189453125,6.5093994140625,-13.9691162109375,88.65966796875
2021-09-22 21:23:33.730390,-0.05908203125,0.00927734375,0.54833984375,6.4434814453125,-14.095458984375,89.0496826171875
2021-09-22 21:23:33.740236,-0.03173828125,0.02587890625,0.3720703125,6.3665771484375,-14.1888427734375,89.40673828125
2021-09-22 21:23:33.750304,-0.01171875,0.0166015625,0.41748046875,6.26220703125,-14.249267578125,89.857177734375
2021-09-22 21:23:33.760248,0.00634765625,-0.03955078125,0.28857421875,6.1248779296875,-14.3096923828125,90.50537109375
2021-09-22 21:23:33.770213,-0.015625,-0.02099609375,0.09521484375,5.9930419921875,-14.39208984375,91.3238525390625
2021-09-22 21:23:33.780092,0.01806640625,0.00927734375,0.67626953125,5.789794921875,-14.447021484375,92.098388671875
2021-09-22 21:23:33.790126,0.05224609375,-0.03369140625,1.31884765625,5.6854248046875,-14.4525146484375,92.647705078125
2021-09-22 21:23:33.800025,0.021484375,0.0771484375,1.748046875,5.7183837890625,-14.468994140625,92.9278564453125
2021-09-22 21:23:33.810014,-0.0048828125,0.1357421875,2.2236328125,5.6689453125,-14.5184326171875,93.076171875
2021-09-22 21:23:33.820038,0.0009765625,0.01708984375,1.9443359375,5.64697265625,-14.5458984375,93.3013916015625
2021-09-22 21:23:33.829940,0.009765625,0.03125,1.38525390625,5.6085205078125,-14.6392822265625,93.80126953125
2021-09-22 21:23:33.839852,0.02294921875,0.0107421875,1.1865234375,5.38330078125,-14.754638671875,94.5867919921875
2021-09-22 21:23:33.849928,0.02392578125,0.01611328125,0.603515625,5.1690673828125,-14.8260498046875,95.526123046875
2021-09-22 21:23:33.860211,0.01025390625,0.02197265625,0.59423828125,4.9273681640625,-14.908447265625,96.5863037109375
2021-09-22 21:23:33.870131,-0.044921875,-0.07177734375,0.29345703125,4.625244140625,-15.0457763671875,97.7783203125
2021-09-22 21:23:33.879927,-0.2099609375,-0.07666015625,-0.0927734375,4.3011474609375,-15.205078125,99.0472412109375
2021-09-22 21:23:33.890017,0.11572265625,0.10107421875,0.4462890625,3.8287353515625,-15.2325439453125,100.3436279296875
2021-09-22 21:23:33.899749,0.27392578125,0.08203125,1.3037109375,3.2794189453125,-15.1446533203125,101.480712890625
2021-09-22 21:23:33.909640,0.00830078125,-0.05078125,1.15625,3.043212890625,-15.0732421875,102.227783203125
2021-09-22 21:23:33.919680,0.0166015625,-0.00732421875,1.52978515625,3.09814453125,-15.1007080078125,102.41455078125
2021-09-22 21:23:33.929689,-0.06982421875,0.00537109375,1.6728515625,3.076171875,-15.1556396484375,101.9476318359375
2021-09-22 21:23:33.939606,-0.0498046875,-0.0107421875,1.2890625,3.3453369140625,-15.1556396484375,100.9259033203125
2021-09-22 21:23:33.949518,-0.033203125,0.041015625,0.90625,3.6859130859375,-15.106201171875,99.6295166015625
2021-09-22 21:23:33.959556,-0.09814453125,0.01953125,0.50439453125,3.9111328125,-15.0787353515625,98.3221435546875
2021-09-22 21:23:33.969563,-0.15966796875,0.08056640625,0.1513671875,4.1693115234375,-15.062255859375,97.042236328125
2021-09-22 21:23:33.979765,-0.078125,0.07080078125,0.23291015625,4.449462890625,-15.05126953125,95.7513427734375
2021-09-22 21:23:33.989691,0.0771484375,0.037109375,0.66064453125,4.7845458984375,-14.9908447265625,94.7186279296875
2021-09-22 21:23:33.999389,0.1201171875,0.05810546875,1.322265625,5.064697265625,-14.864501953125,94.119873046875
2021-09-22 21:23:34.009384,0.0478515625,0.0146484375,1.021484375,5.1800537109375,-14.7271728515625,93.922119140625
2021-09-22 21:23:34.019357,-0.0146484375,-0.04931640625,1.1767578125,5.152587890625,-14.666748046875,94.097900390625
2021-09-22 21:23:34.029235,0.04638671875,-0.1708984375,1.955078125,5.0592041015625,-14.6612548828125,94.7406005859375
2021-09-22 21:23:34.039339,0.0888671875,0.2177734375,2.09716796875,4.8504638671875,-14.677734375,95.7513427734375
2021-09-22 21:23:34.049154,0.01513671875,0.02978515625,1.26318359375,4.6417236328125,-14.710693359375,96.78955078125
2021-09-22 21:23:34.059456,-0.01708984375,-0.03076171875,1.28759765625,4.46044921875,-14.7930908203125,97.613525390625
2021-09-22 21:23:34.069464,-0.02099609375,-0.02490234375,1.111328125,4.3341064453125,-14.87548828125,98.206787109375
2021-09-22 21:23:34.079364,-0.02587890625,0.00830078125,0.42529296875,4.2022705078125,-14.952392578125,98.6407470703125
2021-09-22 21:23:34.089125,-0.01318359375,-0.03173828125,0.3740234375,4.119873046875,-15.0128173828125,99.019775390625
2021-09-22 21:23:34.099056,-0.0146484375,0.017578125,0.50146484375,3.9990234375,-15.062255859375,99.4647216796875
2021-09-22 21:23:34.108985,-0.0224609375,-0.02587890625,0.345703125,3.856201171875,-15.09521484375,100.1129150390625
2021-09-22 21:23:34.118989,-0.03125,-0.05419921875,0.10400390625,3.702392578125,-15.1336669921875,100.9368896484375
2021-09-22 21:23:34.129676,0.0361328125,0.029296875,0.57275390625,3.5211181640625,-15.1556396484375,101.7333984375
2021-09-22 21:23:34.138871,0.05126953125,-0.02685546875,1.34033203125,3.372802734375,-15.1336669921875,102.3211669921875
2021-09-22 21:23:34.148888,0.005859375,0.05810546875,1.78564453125,3.4112548828125,-15.128173828125,102.63427734375
2021-09-22 21:23:34.158876,-0.029296875,0.13134765625,2.1669921875,3.394775390625,-15.172119140625,102.81005859375
2021-09-22 21:23:34.168780,-0.00146484375,0.02734375,1.99169921875,3.33984375,-15.205078125,103.040771484375
2021-09-22 21:23:34.178886,0.025390625,0.017578125,1.39990234375,3.2958984375,-15.2435302734375,103.5406494140625
2021-09-22 21:23:34.188765,0.03125,0.00634765625,1.22705078125,3.065185546875,-15.2984619140625,104.315185546875
2021-09-22 21:23:34.198678,0.01904296875,-0.009765625,0.66943359375,2.8399658203125,-15.31494140625,105.2545166015625
2021-09-22 21:23:34.208707,0.0078125,0.0107421875,0.56201171875,2.603759765625,-15.347900390625,106.3037109375
2021-09-22 21:23:34.218671,-0.0654296875,-0.076171875,0.31298828125,2.28515625,-15.4083251953125,107.479248046875
2021-09-22 21:23:34.228598,-0.1875,0.00048828125,0.2626953125,1.9390869140625,-15.4742431640625,108.7481689453125
2021-09-22 21:23:34.238781,0.11181640625,0.044921875,0.2294921875,1.4337158203125,-15.40283203125,110.0225830078125
2021-09-22 21:23:34.248950,0.32177734375,0.015625,1.279296875,0.9228515625,-15.2874755859375,111.1376953125
2021-09-22 21:23:34.258690,0.04443359375,-0.107421875,1.31787109375,0.714111328125,-15.2435302734375,111.86279296875
2021-09-22 21:23:34.268606,0.00732421875,0.0068359375,1.41162109375,0.7305908203125,-15.325927734375,112.060546875
2021-09-22 21:23:34.278618,-0.048828125,0.0048828125,1.6064453125,0.703125,-15.4248046875,111.6265869140625
2021-09-22 21:23:34.288565,-0.0263671875,0.00927734375,1.2802734375,0.9722900390625,-15.435791015625,110.6378173828125
2021-09-22 21:23:34.298348,-0.05908203125,0.095703125,0.919921875,1.29638671875,-15.3973388671875,109.35791015625
2021-09-22 21:23:34.308341,-0.15478515625,0.07373046875,0.6240234375,1.483154296875,-15.4083251953125,108.0670166015625
2021-09-22 21:23:34.318277,-0.20166015625,0.0947265625,0.12353515625,1.724853515625,-15.435791015625,106.8035888671875
2021-09-22 21:23:34.328514,-0.07421875,0.0576171875,0.236328125,2.04345703125,-15.4742431640625,105.5401611328125
2021-09-22 21:23:34.338289,0.10205078125,0.03955078125,0.64404296875,2.43896484375,-15.4632568359375,104.5074462890625
2021-09-22 21:23:34.348133,0.14404296875,0.06005859375,1.2861328125,2.757568359375,-15.3643798828125,103.90869140625
2021-09-22 21:23:34.358094,0.052734375,-0.00537109375,1.01416015625,2.8839111328125,-15.2325439453125,103.7109375
2021-09-22 21:23:34.368141,0.0283203125,-0.0380859375,1.24072265625,2.8619384765625,-15.1556396484375,103.897705078125
2021-09-22 21:23:34.378120,-0.02392578125,-0.06005859375,1.99658203125,2.7630615234375,-15.1116943359375,104.5404052734375
2021-09-22 21:23:34.388075,0.017578125,0.072265625,1.90576171875,2.52685546875,-15.1116943359375,105.545654296875
2021-09-22 21:23:34.397985,-0.02392578125,-0.02734375,1.27490234375,2.3016357421875,-15.1226806640625,106.58935546875
2021-09-22 21:23:34.408121,-0.005859375,-0.01953125,1.32470703125,2.109375,-15.1611328125,107.4188232421875
2021-09-22 21:23:34.418068,-0.0205078125,-0.05810546875,1.13720703125,1.9500732421875,-15.2105712890625,108.017578125
2021-09-22 21:23:34.427910,-0.03369140625,-0.0009765625,0.45556640625,1.834716796875,-15.27099609375,108.4625244140625
2021-09-22 21:23:34.437908,-0.005859375,-0.00927734375,0.4013671875,1.746826171875,-15.31494140625,108.8525390625
2021-09-22 21:23:34.447913,-0.0048828125,0.02197265625,0.46728515625,1.6094970703125,-15.3424072265625,109.302978515625
2021-09-22 21:23:34.458142,-0.0048828125,-0.02197265625,0.35888671875,1.4556884765625,-15.3533935546875,109.951171875
2021-09-22 21:23:34.468095,-0.02587890625,-0.041015625,0.111328125,1.3018798828125,-15.3753662109375,110.76416015625
2021-09-22 21:23:34.478093,0.02978515625,0.0302734375,0.56005859375,1.109619140625,-15.3753662109375,111.5496826171875
2021-09-22 21:23:34.487942,0.0517578125,-0.02587890625,1.3349609375,0.966796875,-15.3424072265625,112.1209716796875
2021-09-22 21:23:34.497659,0.0126953125,0.068359375,1.78076171875,1.0052490234375,-15.3424072265625,112.423095703125
2021-09-22 21:23:34.507561,-0.0126953125,0.14697265625,2.1240234375,0.977783203125,-15.3973388671875,112.598876953125
2021-09-22 21:23:34.517498,-0.00390625,0.03173828125,2.01904296875,0.9393310546875,-15.435791015625,112.82958984375
2021-09-22 21:23:34.527277,0.01416015625,0.015625,1.40576171875,0.911865234375,-15.49072265625,113.323974609375
2021-09-22 21:23:34.537141,0.03173828125,0.0087890625,1.20556640625,0.692138671875,-15.5621337890625,114.0985107421875
2021-09-22 21:23:34.547091,0.01220703125,-0.0068359375,0.6787109375,0.472412109375,-15.5841064453125,115.037841796875
2021-09-22 21:23:34.557069,-0.0107421875,0.01513671875,0.6181640625,0.2581787109375,-15.5950927734375,116.0980224609375
2021-09-22 21:23:34.567203,-0.08544921875,-0.060546875,0.31689453125,-0.0714111328125,-15.6280517578125,117.2735595703125
2021-09-22 21:23:34.577220,-0.1826171875,-0.14697265625,-0.09912109375,-0.41748046875,-15.655517578125,118.5150146484375
2021-09-22 21:23:34.587338,0.23046875,0.09716796875,0.5634765625,-0.889892578125,-15.53466796875,119.7509765625
2021-09-22 21:23:34.596995,0.35888671875,0.03369140625,0.9677734375,-1.483154296875,-15.2874755859375,120.8551025390625
2021-09-22 21:23:34.606984,0.0185546875,-0.05224609375,1.0322265625,-1.724853515625,-15.09521484375,121.5966796875
2021-09-22 21:23:34.616872,-0.0029296875,-0.017578125,1.46923828125,-1.6864013671875,-15.09521484375,121.83837890625
2021-09-22 21:23:34.627480,-0.0625,0.01416015625,1.70458984375,-1.7578125,-15.205078125,121.4813232421875
2021-09-22 21:23:34.636920,-0.02880859375,0.0126953125,1.2919921875,-1.527099609375,-15.2984619140625,120.5694580078125
2021-09-22 21:23:34.646792,-0.025390625,0.04443359375,0.94482421875,-1.1920166015625,-15.3369140625,119.33349609375
2021-09-22 21:23:34.656710,-0.12744140625,0.05517578125,0.60498046875,-0.9722900390625,-15.3973388671875,118.0426025390625
2021-09-22 21:23:34.666665,-0.18896484375,0.078125,0.2333984375,-0.714111328125,-15.4852294921875,116.8011474609375
2021-09-22 21:23:34.676865,-0.09716796875,0.04150390625,0.17724609375,-0.4449462890625,-15.5841064453125,115.565185546875
2021-09-22 21:23:34.686888,0.1064453125,0.03515625,0.6142578125,-0.098876953125,-15.6280517578125,114.54345703125
2021-09-22 21:23:34.696692,0.17041015625,0.0498046875,1.283203125,0.2032470703125,-15.5621337890625,113.9447021484375
2021-09-22 21:23:34.706601,0.07568359375,0.01025390625,1.05712890625,0.318603515625,-15.44677734375,113.763427734375
