time,acc_x,acc_y,acc_z,roll,pitch,yaw
2021-09-22 21:14:16.328519,-0.01025390625,0.00048828125,1.00390625,0.450439453125,1.2799072265625,-93.372802734375
2021-09-22 21:14:16.336212,-0.009765625,0.0009765625,1.00341796875,0.3570556640625,1.2359619140625,-93.482666015625
2021-09-22 21:14:16.346237,-0.01025390625,0.005859375,1.0048828125,0.2581787109375,1.1920166015625,-93.592529296875
2021-09-22 21:14:16.356131,-0.01513671875,0.005859375,1.005859375,0.164794921875,1.153564453125,-93.69140625
2021-09-22 21:14:16.366105,-0.01611328125,0.01318359375,1.0,0.076904296875,1.1260986328125,-93.7847900390625
2021-09-22 21:14:16.376050,-0.013671875,0.0166015625,0.99755859375,0.0054931640625,1.109619140625,-93.878173828125
2021-09-22 21:14:16.385923,-0.01416015625,0.021484375,0.9921875,-0.054931640625,1.087646484375,-93.955078125
2021-09-22 21:14:16.395622,-0.009765625,0.02392578125,0.98681640625,-0.10986328125,1.07666015625,-94.031982421875
2021-09-22 21:14:16.405914,-0.005859375,0.0224609375,0.98388671875,-0.1593017578125,1.065673828125,-94.1033935546875
2021-09-22 21:14:16.415868,-0.00390625,0.01806640625,0.9814453125,-0.2032470703125,1.0546875,-94.1693115234375
2021-09-22 21:14:16.426019,-0.0029296875,0.017578125,0.9775390625,-0.2471923828125,1.0491943359375,-94.2242431640625
2021-09-22 21:14:16.435861,-0.00341796875,0.01708984375,0.9775390625,-0.2911376953125,1.0382080078125,-94.2791748046875
2021-09-22 21:14:16.445763,-0.00634765625,0.01123046875,0.9794921875,-0.3350830078125,1.0272216796875,-94.32861328125
2021-09-22 21:14:16.455685,-0.0166015625,0.00537109375,0.9833984375,-0.3790283203125,1.0272216796875,-94.3670654296875
2021-09-22 21:14:16.465644,-0.02294921875,0.0048828125,0.9833984375,-0.41748046875,1.0272216796875,-94.4000244140625
2021-09-22 21:14:16.475838,-0.02392578125,0.00341796875,0.9833984375,-0.4559326171875,1.0272216796875,-94.4219970703125
2021-09-22 21:14:16.486349,-0.02587890625,0.00146484375,0.9853515625,-0.494384765625,1.021728515625,-94.427490234375
2021-09-22 21:14:16.495855,-0.0224609375,0.0009765625,0.98583984375,-0.5218505859375,1.0162353515625,-94.427490234375
2021-09-22 21:14:16.505775,-0.02294921875,0.00048828125,0.98046875,-0.5438232421875,1.0107421875,-94.41650390625
2021-09-22 21:14:16.515615,-0.021484375,0.0029296875,0.97998046875,-0.560302734375,1.0052490234375,-94.39453125
2021-09-22 21:14:16.525518,-0.01904296875,0.00830078125,0.9853515625,-0.560302734375,0.9942626953125,-94.3670654296875
2021-09-22 21:14:16.535438,-0.01904296875,0.01220703125,0.98828125,-0.54931640625,0.9832763671875,-94.3341064453125
2021-09-22 21:14:16.545391,-0.02001953125,0.01611328125,0.99072265625,-0.52734375,0.9722900390625,-94.2901611328125
2021-09-22 21:14:16.555479,-0.0205078125,0.01708984375,0.99072265625,-0.4888916015625,0.9613037109375,-94.251708984375
2021-09-22 21:14:16.565368,-0.0205078125,0.0146484375,0.99072265625,-0.450439453125,0.94482421875,-94.2022705078125
2021-09-22 21:14:16.575329,-0.01708984375,0.01123046875,0.9912109375,-0.406494140625,0.9228515625,-94.1583251953125
2021-09-22 21:14:16.585201,-0.01513671875,0.00244140625,0.98876953125,-0.37353515625,0.8953857421875,-94.1143798828125
2021-09-22 21:14:16.595889,-0.01171875,-0.00439453125,0.98046875,-0.3460693359375,0.85693359375,-94.0704345703125
2021-09-22 21:14:16.605189,-0.01220703125,-0.01123046875,0.97509765625,-0.340576171875,0.8184814453125,-94.0264892578125
2021-09-22 21:14:16.615138,-0.01513671875,-0.01806640625,0.974609375,-0.3460693359375,0.7745361328125,-93.9825439453125
2021-09-22 21:14:16.625189,-0.0166015625,-0.02001953125,0.97607421875,-0.3680419921875,0.72509765625,-93.944091796875
2021-09-22 21:14:16.635110,-0.02001953125,-0.0185546875,0.97509765625,-0.3955078125,0.6756591796875,-93.900146484375
2021-09-22 21:14:16.645152,-0.0185546875,-0.01513671875,0.9736328125,-0.41748046875,0.6207275390625,-93.856201171875
2021-09-22 21:14:16.654960,-0.01513671875,-0.01171875,0.97705078125,-0.439453125,0.5657958984375,-93.812255859375
2021-09-22 21:14:16.665068,-0.0107421875,-0.01123046875,0.9765625,-0.4559326171875,0.5108642578125,-93.7738037109375
2021-09-22 21:14:16.674937,-0.005859375,-0.0107421875,0.97412109375,-0.46142578125,0.46142578125,-93.7298583984375
2021-09-22 21:14:16.684882,-0.0048828125,-0.00390625,0.97412109375,-0.4559326171875,0.406494140625,-93.6968994140625
2021-09-22 21:14:16.695056,-0.0029296875,-0.00244140625,0.97509765625,-0.439453125,0.362548828125,-93.6639404296875
2021-09-22 21:14:16.704918,-0.00048828125,0.001953125,0.97705078125,-0.4119873046875,0.318603515625,-93.636474609375
2021-09-22 21:14:16.714811,0.0029296875,0.009765625,0.982421875,-0.3680419921875,0.28564453125,-93.614501953125
2021-09-22 21:14:16.724761,0.0048828125,0.017578125,0.98291015625,-0.318603515625,0.252685546875,-93.603515625
2021-09-22 21:14:16.734863,0.0048828125,0.0205078125,0.98193359375,-0.2581787109375,0.2252197265625,-93.5980224609375
2021-09-22 21:14:16.744741,0.00244140625,0.02197265625,0.98486328125,-0.19775390625,0.208740234375,-93.5980224609375
2021-09-22 21:14:16.754819,0.00439453125,0.0224609375,0.98681640625,-0.1373291015625,0.19775390625,-93.603515625
2021-09-22 21:14:16.764619,0.00390625,0.02099609375,0.98974609375,-0.076904296875,0.186767578125,-93.614501953125
2021-09-22 21:14:16.774684,0.00146484375,0.0205078125,0.9912109375,-0.02197265625,0.186767578125,-93.6309814453125
2021-09-22 21:14:16.784623,0.001953125,0.0205078125,0.9912109375,0.032958984375,0.186767578125,-93.6474609375
2021-09-22 21:14:16.794533,0.00244140625,0.02099609375,0.994140625,0.087890625,0.1922607421875,-93.6639404296875
2021-09-22 21:14:16.804609,0.00146484375,0.01904296875,0.99609375,0.1373291015625,0.208740234375,-93.680419921875
2021-09-22 21:14:16.814600,-0.0009765625,0.015625,0.99462890625,0.186767578125,0.2252197265625,-93.702392578125
2021-09-22 21:14:16.824451,-0.0029296875,0.01171875,0.99609375,0.24169921875,0.252685546875,-93.71337890625
2021-09-22 21:14:16.834385,-0.0068359375,0.009765625,0.9970703125,0.2911376953125,0.28564453125,-93.724365234375
2021-09-22 21:14:16.844486,-0.0078125,0.0087890625,0.9931640625,0.340576171875,0.318603515625,-93.7298583984375
2021-09-22 21:14:16.854386,-0.0087890625,0.01123046875,0.98779296875,0.3900146484375,0.362548828125,-93.7298583984375
2021-09-22 21:14:16.864507,-0.009765625,0.00927734375,0.98583984375,0.428466796875,0.406494140625,-93.724365234375
2021-09-22 21:14:16.874854,-0.01318359375,0.00830078125,0.98681640625,0.46142578125,0.4559326171875,-93.71337890625
2021-09-22 21:14:16.884905,-0.01806640625,0.00732421875,0.98486328125,0.4833984375,0.5108642578125,-93.69140625
2021-09-22 21:14:16.894928,-0.02294921875,0.00244140625,0.98779296875,0.4998779296875,0.5712890625,-93.658447265625
2021-09-22 21:14:16.904813,-0.02734375,-0.00048828125,0.990234375,0.50537109375,0.6317138671875,-93.6199951171875
2021-09-22 21:14:16.914764,-0.02734375,-0.00439453125,0.9951171875,0.516357421875,0.703125,-93.570556640625
2021-09-22 21:14:16.924554,-0.0283203125,-0.01025390625,0.994140625,0.52734375,0.780029296875,-93.5101318359375
2021-09-22 21:14:16.934607,-0.03125,-0.0107421875,0.99658203125,0.54931640625,0.8624267578125,-93.4442138671875
2021-09-22 21:14:16.944558,-0.033203125,-0.01220703125,1.001953125,0.5877685546875,0.955810546875,-93.3673095703125
2021-09-22 21:14:16.954457,-0.03466796875,-0.0126953125,0.99755859375,0.6317138671875,1.0546875,-93.284912109375
2021-09-22 21:14:16.964466,-0.0341796875,-0.0166015625,0.99365234375,0.6756591796875,1.1590576171875,-93.197021484375
2021-09-22 21:14:16.974310,-0.0380859375,-0.0166015625,0.99755859375,0.7196044921875,1.2689208984375,-93.09814453125
2021-09-22 21:14:16.984560,-0.03759765625,-0.0146484375,0.99951171875,0.758056640625,1.38427734375,-92.9937744140625
2021-09-22 21:14:16.994355,-0.0361328125,-0.0146484375,0.998046875,0.780029296875,1.4996337890625,-92.8839111328125
2021-09-22 21:14:17.004341,-0.03955078125,-0.015625,1.00244140625,0.791015625,1.6259765625,-92.7685546875
2021-09-22 21:14:17.014656,-0.04345703125,-0.01416015625,1.009765625,0.7855224609375,1.7578125,-92.647705078125
2021-09-22 21:14:17.024329,-0.0419921875,-0.0146484375,1.009765625,0.7635498046875,1.8896484375,-92.52685546875
2021-09-22 21:14:17.034277,-0.04248046875,-0.01123046875,1.0107421875,0.7305908203125,2.0269775390625,-92.39501953125
2021-09-22 21:14:17.044110,-0.04052734375,-0.00341796875,1.01025390625,0.6866455078125,2.164306640625,-92.2686767578125
2021-09-22 21:14:17.054007,-0.04248046875,0.0087890625,1.01220703125,0.63720703125,2.30712890625,-92.1368408203125
2021-09-22 21:14:17.064161,-0.04248046875,0.025390625,1.01708984375,0.5712890625,2.4554443359375,-92.0050048828125
2021-09-22 21:14:17.073977,-0.04296875,0.03955078125,1.025390625,0.50537109375,2.6092529296875,-91.8841552734375
2021-09-22 21:14:17.084077,-0.046875,0.05224609375,1.02783203125,0.428466796875,2.7630615234375,-91.7633056640625
2021-09-22 21:14:17.094797,-0.05029296875,0.0634765625,1.03271484375,0.3460693359375,2.92236328125,-91.6534423828125
2021-09-22 21:14:17.103741,-0.0537109375,0.06787109375,1.03662109375,0.2691650390625,3.0816650390625,-91.549072265625
2021-09-22 21:14:17.113568,-0.05615234375,0.0673828125,1.03271484375,0.186767578125,3.2464599609375,-91.461181640625
2021-09-22 21:14:17.123496,-0.0595703125,0.0703125,1.03271484375,0.10986328125,3.4112548828125,-91.373291015625
2021-09-22 21:14:17.133351,-0.06689453125,0.06689453125,1.03466796875,0.0274658203125,3.58154296875,-91.3018798828125
2021-09-22 21:14:17.143506,-0.0693359375,0.0625,1.0341796875,-0.054931640625,3.75732421875,-91.2359619140625
2021-09-22 21:14:17.153494,-0.0732421875,0.05908203125,1.0263671875,-0.1373291015625,3.9276123046875,-91.1810302734375
2021-09-22 21:14:17.163364,-0.0771484375,0.048828125,1.02294921875,-0.230712890625,4.0924072265625,-91.1260986328125
2021-09-22 21:14:17.173246,-0.07861328125,0.033203125,1.0166015625,-0.32958984375,4.2572021484375,-91.0821533203125
2021-09-22 21:14:17.183149,-0.0830078125,0.01611328125,1.01025390625,-0.4449462890625,4.41650390625,-91.043701171875
2021-09-22 21:14:17.193442,-0.0869140625,0.0029296875,1.001953125,-0.5712890625,4.5703125,-90.999755859375
2021-09-22 21:14:17.203269,-0.09130859375,-0.0107421875,0.9921875,-0.7086181640625,4.7186279296875,-90.9613037109375
2021-09-22 21:14:17.213206,-0.09423828125,-0.0263671875,0.986328125,-0.8624267578125,4.8614501953125,-90.9173583984375
2021-09-22 21:14:17.223046,-0.09521484375,-0.03759765625,0.97705078125,-1.021728515625,4.9932861328125,-90.867919921875
2021-09-22 21:14:17.232937,-0.09814453125,-0.05029296875,0.9755859375,-1.1920166015625,5.1141357421875,-90.8184814453125
2021-09-22 21:14:17.243040,-0.09765625,-0.0546875,0.9658203125,-1.3623046875,5.2239990234375,-90.7635498046875
2021-09-22 21:14:17.252902,-0.0966796875,-0.05908203125,0.96240234375,-1.5325927734375,5.328369140625,-90.703125
2021-09-22 21:14:17.262894,-0.095703125,-0.0673828125,0.951171875,-1.702880859375,5.4217529296875,-90.6427001953125
2021-09-22 21:14:17.272784,-0.09521484375,-0.07470703125,0.95703125,-1.86767578125,5.504150390625,-90.5767822265625
2021-09-22 21:14:17.282832,-0.09423828125,-0.08251953125,0.95458984375,-2.0159912109375,5.5755615234375,-90.5108642578125
2021-09-22 21:14:17.292966,-0.095703125,-0.08837890625,0.955078125,-2.1478271484375,5.64697265625,-90.4449462890625
2021-09-22 21:14:17.302838,-0.09716796875,-0.09228515625,0.955078125,-2.2576904296875,5.712890625,-90.3790283203125
2021-09-22 21:14:17.312706,-0.095703125,-0.09716796875,0.95703125,-2.340087890625,5.767822265625,-90.3131103515625
2021-09-22 21:14:17.322755,-0.0986328125,-0.10107421875,0.9580078125,-2.406005859375,5.8282470703125,-90.252685546875
2021-09-22 21:14:17.332673,-0.1005859375,-0.10546875,0.9599609375,-2.4444580078125,5.877685546875,-90.1922607421875
2021-09-22 21:14:17.342661,-0.103515625,-0.10986328125,0.9580078125,-2.4664306640625,5.9271240234375,-90.1373291015625
2021-09-22 21:14:17.352664,-0.10595703125,-0.11376953125,0.95751953125,-2.48291015625,5.9710693359375,-90.087890625
2021-09-22 21:14:17.362585,-0.103515625,-0.11962890625,0.95458984375,-2.4993896484375,6.009521484375,-90.0439453125
2021-09-22 21:14:17.372539,-0.1064453125,-0.11669921875,0.95458984375,-2.5213623046875,6.04248046875,-90.0054931640625
2021-09-22 21:14:17.382427,-0.115234375,-0.1142578125,0.96337890625,-2.5433349609375,6.075439453125,-89.9725341796875
2021-09-22 21:14:17.392583,-0.11474609375,-0.11181640625,0.97021484375,-2.57080078125,6.1029052734375,-89.9505615234375
2021-09-22 21:14:17.402632,-0.11376953125,-0.10888671875,0.9765625,-2.603759765625,6.13037109375,-89.9285888671875
2021-09-22 21:14:17.412383,-0.1103515625,-0.10595703125,0.98583984375,-2.6422119140625,6.15234375,-89.923095703125
2021-09-22 21:14:17.422291,-0.10693359375,-0.10009765625,0.9921875,-2.6806640625,6.17431640625,-89.923095703125
2021-09-22 21:14:17.432379,-0.1015625,-0.10009765625,0.99072265625,-2.7191162109375,6.185302734375,-89.9395751953125
2021-09-22 21:14:17.442369,-0.09814453125,-0.09619140625,0.98974609375,-2.7630615234375,6.2017822265625,-89.9725341796875
2021-09-22 21:14:17.452273,-0.09814453125,-0.09619140625,0.98974609375,-2.801513671875,6.2127685546875,-90.0
2021-09-22 21:14:17.462190,-0.0927734375,-0.095703125,0.98974609375,-2.845458984375,6.2237548828125,-90.0494384765625
2021-09-22 21:14:17.472301,-0.08740234375,-0.09228515625,0.98974609375,-2.8948974609375,6.229248046875,-90.10986328125
2021-09-22 21:14:17.482141,-0.08935546875,-0.0849609375,0.98583984375,-2.9443359375,6.2347412109375,-90.186767578125
2021-09-22 21:14:17.492224,-0.0927734375,-0.080078125,0.98046875,-2.999267578125,6.2347412109375,-90.28564453125
2021-09-22 21:14:17.502124,-0.08837890625,-0.0771484375,0.9765625,-3.0596923828125,6.2347412109375,-90.3955078125
2021-09-22 21:14:17.512112,-0.08154296875,-0.07470703125,0.97216796875,-3.1256103515625,6.21826171875,-90.5218505859375
2021-09-22 21:14:17.522039,-0.0771484375,-0.06884765625,0.97216796875,-3.197021484375,6.2017822265625,-90.6591796875
2021-09-22 21:14:17.531988,-0.07568359375,-0.06298828125,0.96630859375,-3.2574462890625,6.1688232421875,-90.81298828125
2021-09-22 21:14:17.541880,-0.07666015625,-0.05419921875,0.962890625,-3.306884765625,6.1358642578125,-90.9832763671875
2021-09-22 21:14:17.551980,-0.0751953125,-0.04833984375,0.958984375,-3.350830078125,6.0919189453125,-91.153564453125
2021-09-22 21:14:17.561860,-0.076171875,-0.04248046875,0.9560546875,-3.3782958984375,6.0369873046875,-91.3348388671875
2021-09-22 21:14:17.571877,-0.07861328125,-0.0380859375,0.9521484375,-3.394775390625,5.9765625,-91.5216064453125
2021-09-22 21:14:17.581711,-0.07763671875,-0.03369140625,0.95166015625,-3.394775390625,5.9051513671875,-91.7083740234375
2021-09-22 21:14:17.592522,-0.07763671875,-0.025390625,0.9482421875,-3.3782958984375,5.8282470703125,-91.8951416015625
2021-09-22 21:14:17.601837,-0.07958984375,-0.01611328125,0.95166015625,-3.33984375,5.73486328125,-92.0709228515625
2021-09-22 21:14:17.611665,-0.08154296875,-0.0068359375,0.95361328125,-3.27392578125,5.635986328125,-92.2467041015625
2021-09-22 21:14:17.621770,-0.08154296875,0.0009765625,0.95703125,-3.1805419921875,5.537109375,-92.4114990234375
2021-09-22 21:14:17.631664,-0.0791015625,0.00439453125,0.96044921875,-3.0706787109375,5.4217529296875,-92.57080078125
2021-09-22 21:14:17.641632,-0.07470703125,0.0048828125,0.966796875,-2.9278564453125,5.306396484375,-92.713623046875
2021-09-22 21:14:17.651502,-0.06787109375,0.0048828125,0.96875,-2.7685546875,5.1800537109375,-92.845458984375
2021-09-22 21:14:17.661659,-0.06689453125,0.00927734375,0.97509765625,-2.5872802734375,5.0537109375,-92.96630859375
2021-09-22 21:14:17.671519,-0.06640625,0.01416015625,0.978515625,-2.384033203125,4.921875,-93.076171875
2021-09-22 21:14:17.681409,-0.06396484375,0.0224609375,0.98095703125,-2.164306640625,4.7900390625,-93.175048828125
2021-09-22 21:14:17.691537,-0.0654296875,0.02734375,0.9814453125,-1.9390869140625,4.6636962890625,-93.2574462890625
2021-09-22 21:14:17.701598,-0.06787109375,0.02880859375,0.9873046875,-1.7083740234375,4.537353515625,-93.328857421875
2021-09-22 21:14:17.711433,-0.068359375,0.029296875,0.98779296875,-1.483154296875,4.4110107421875,-93.3892822265625
2021-09-22 21:14:17.721369,-0.068359375,0.0234375,0.98779296875,-1.2744140625,4.2901611328125,-93.4332275390625
2021-09-22 21:14:17.731280,-0.068359375,0.01513671875,0.986328125,-1.07666015625,4.1693115234375,-93.4661865234375
2021-09-22 21:14:17.741368,-0.0703125,0.01171875,0.9892578125,-0.889892578125,4.053955078125,-93.482666015625
2021-09-22 21:14:17.751253,-0.06884765625,0.00732421875,0.98974609375,-0.7196044921875,3.944091796875,-93.4881591796875
2021-09-22 21:14:17.761137,-0.06591796875,0.00146484375,0.98974609375,-0.5657958984375,3.8397216796875,-93.4771728515625
2021-09-22 21:14:17.771252,-0.0693359375,0.00146484375,0.9931640625,-0.4119873046875,3.7408447265625,-93.44970703125
2021-09-22 21:14:17.781166,-0.0703125,0.005859375,1.00244140625,-0.263671875,3.6529541015625,-93.416748046875
2021-09-22 21:14:17.791126,-0.06787109375,0.01025390625,1.0048828125,-0.10986328125,3.570556640625,-93.3673095703125
2021-09-22 21:14:17.801177,-0.06640625,0.01953125,1.00927734375,0.0494384765625,3.4991455078125,-93.3123779296875
2021-09-22 21:14:17.811147,-0.06201171875,0.02001953125,1.00732421875,0.2142333984375,3.4332275390625,-93.251953125
2021-09-22 21:14:17.821140,-0.05712890625,0.01611328125,1.00537109375,0.3790283203125,3.372802734375,-93.18603515625
2021-09-22 21:14:17.830996,-0.05419921875,0.00830078125,1.00341796875,0.5328369140625,3.3233642578125,-93.1256103515625
2021-09-22 21:14:17.841063,-0.05712890625,0.00439453125,0.998046875,0.670166015625,3.2794189453125,-93.0596923828125
2021-09-22 21:14:17.850975,-0.05517578125,-0.01953125,1.0244140625,0.76904296875,3.240966796875,-92.9937744140625
2021-09-22 21:14:17.860913,-0.076171875,0.01708984375,1.15673828125,0.8074951171875,3.2080078125,-92.9278564453125
2021-09-22 21:14:17.870822,-0.09765625,-0.02001953125,1.0625,0.7415771484375,3.1640625,-92.8729248046875
2021-09-22 21:14:17.880885,-0.10400390625,0.0029296875,1.0634765625,0.615234375,3.1365966796875,-92.8289794921875
2021-09-22 21:14:17.890967,-0.0859375,-0.01513671875,1.021484375,0.472412109375,3.109130859375,-92.7960205078125
2021-09-22 21:14:17.900889,-0.0869140625,0.0146484375,1.01171875,0.340576171875,3.09814453125,-92.779541015625
2021-09-22 21:14:17.910756,-0.0712890625,0.0078125,0.9677734375,0.2471923828125,3.0926513671875,-92.7685546875
2021-09-22 21:14:17.920857,-0.0615234375,-0.005859375,1.0029296875,0.1922607421875,3.0926513671875,-92.7630615234375
2021-09-22 21:14:17.930744,-0.05322265625,-0.02490234375,0.9921875,0.1702880859375,3.09814453125,-92.7520751953125
2021-09-22 21:14:17.940632,-0.0478515625,-0.03369140625,1.0234375,0.1593017578125,3.1201171875,-92.74658203125
2021-09-22 21:14:17.950759,-0.0458984375,-0.033203125,1.029296875,0.120849609375,3.131103515625,-92.7410888671875
2021-09-22 21:14:17.960657,-0.0576171875,-0.03466796875,1.02392578125,0.0494384765625,3.131103515625,-92.735595703125
2021-09-22 21:14:17.970596,-0.05859375,-0.03857421875,1.025390625,-0.0384521484375,3.1256103515625,-92.735595703125
2021-09-22 21:14:17.980435,-0.06640625,-0.03369140625,1.01123046875,-0.1263427734375,3.131103515625,-92.7410888671875
2021-09-22 21:14:17.990423,-0.07763671875,-0.02001953125,1.001953125,-0.1922607421875,3.1475830078125,-92.74658203125
2021-09-22 21:14:18.000619,-0.083984375,-0.0224609375,1.0224609375,-0.2252197265625,3.1640625,-92.74658203125
2021-09-22 21:14:18.010513,-0.08349609375,-0.025390625,1.03515625,-0.2362060546875,3.1915283203125,-92.7520751953125
2021-09-22 21:14:18.020386,-0.0791015625,-0.02783203125,1.05224609375,-0.2142333984375,3.218994140625,-92.757568359375
2021-09-22 21:14:18.030430,-0.0703125,-0.0263671875,1.068359375,-0.186767578125,3.2464599609375,-92.757568359375
2021-09-22 21:14:18.040352,-0.0673828125,-0.02587890625,1.07080078125,-0.1593017578125,3.262939453125,-92.7630615234375
2021-09-22 21:14:18.050318,-0.072265625,-0.0185546875,1.05224609375,-0.142822265625,3.2794189453125,-92.7685546875
2021-09-22 21:14:18.060232,-0.07373046875,-0.0078125,1.02490234375,-0.1263427734375,3.2904052734375,-92.7740478515625
2021-09-22 21:14:18.070261,-0.07861328125,0.0009765625,1.0048828125,-0.098876953125,3.306884765625,-92.7740478515625
2021-09-22 21:14:18.080202,-0.0791015625,0.00341796875,0.99169921875,-0.0604248046875,3.328857421875,-92.7685546875
2021-09-22 21:14:18.090834,-0.07421875,0.005859375,0.97509765625,-0.0054931640625,3.350830078125,-92.757568359375
2021-09-22 21:14:18.100217,-0.07470703125,0.0068359375,0.97509765625,0.054931640625,3.372802734375,-92.74658203125
2021-09-22 21:14:18.109930,-0.07177734375,0.0048828125,0.97998046875,0.120849609375,3.394775390625,-92.724609375
2021-09-22 21:14:18.120076,-0.0673828125,0.0107421875,0.98486328125,0.186767578125,3.416748046875,-92.70263671875
2021-09-22 21:14:18.129940,-0.068359375,0.01708984375,0.9853515625,0.2471923828125,3.438720703125,-92.6751708984375
2021-09-22 21:14:18.139932,-0.07275390625,0.01806640625,0.978515625,0.2911376953125,3.4661865234375,-92.647705078125
2021-09-22 21:14:18.149834,-0.076171875,0.0185546875,0.974609375,0.3240966796875,3.49365234375,-92.61474609375
2021-09-22 21:14:18.159930,-0.07666015625,0.02294921875,0.984375,0.3460693359375,3.5211181640625,-92.581787109375
2021-09-22 21:14:18.169901,-0.07275390625,0.02197265625,0.98681640625,0.3570556640625,3.5430908203125,-92.548828125
2021-09-22 21:14:18.179797,-0.0693359375,0.02001953125,0.98681640625,0.3570556640625,3.5595703125,-92.515869140625
2021-09-22 21:14:18.189728,-0.0673828125,0.0224609375,0.98095703125,0.3515625,3.58154296875,-92.4884033203125
2021-09-22 21:14:18.199895,-0.0673828125,0.0244140625,0.9794921875,0.3460693359375,3.603515625,-92.4609375
2021-09-22 21:14:18.209752,-0.064453125,0.02685546875,0.97705078125,0.3350830078125,3.6199951171875,-92.4334716796875
2021-09-22 21:14:18.219628,-0.06396484375,0.0302734375,0.97265625,0.3240966796875,3.6419677734375,-92.4114990234375
2021-09-22 21:14:18.229588,-0.06201171875,0.03369140625,0.9697265625,0.318603515625,3.658447265625,-92.39501953125
2021-09-22 21:14:18.239666,-0.060546875,0.03564453125,0.96728515625,0.3076171875,3.680419921875,-92.3785400390625
2021-09-22 21:14:18.249605,-0.05859375,0.0380859375,0.96484375,0.3076171875,3.702392578125,-92.3675537109375
2021-09-22 21:14:18.259432,-0.05615234375,0.0341796875,0.9609375,0.3076171875,3.724365234375,-92.3565673828125
2021-09-22 21:14:18.269566,-0.0546875,0.03515625,0.95947265625,0.3131103515625,3.746337890625,-92.35107421875
2021-09-22 21:14:18.279444,-0.0546875,0.03662109375,0.95849609375,0.3350830078125,3.7738037109375,-92.3455810546875
2021-09-22 21:14:18.289532,-0.056640625,0.03955078125,0.958984375,0.3680419921875,3.80126953125,-92.340087890625
2021-09-22 21:14:18.299502,-0.05908203125,0.03955078125,0.9580078125,0.4119873046875,3.834228515625,-92.340087890625
2021-09-22 21:14:18.309516,-0.0654296875,0.0458984375,0.95458984375,0.4669189453125,3.8671875,-92.3345947265625
2021-09-22 21:14:18.319370,-0.07177734375,0.0478515625,0.95556640625,0.5328369140625,3.9056396484375,-92.3291015625
2021-09-22 21:14:18.329228,-0.07666015625,0.04736328125,0.95849609375,0.604248046875,3.9495849609375,-92.3236083984375
2021-09-22 21:14:18.339153,-0.07470703125,0.046875,1.02490234375,0.6591796875,3.97705078125,-92.3126220703125
2021-09-22 21:14:18.349281,-0.0791015625,0.05322265625,1.0224609375,0.68115234375,3.9935302734375,-92.3016357421875
2021-09-22 21:14:18.359192,-0.08447265625,0.04833984375,1.02880859375,0.6646728515625,3.9990234375,-92.28515625
2021-09-22 21:14:18.369110,-0.0791015625,0.0458984375,1.025390625,0.63720703125,3.988037109375,-92.2576904296875
2021-09-22 21:14:18.379000,-0.08251953125,0.0478515625,1.00146484375,0.5987548828125,3.97705078125,-92.2357177734375
2021-09-22 21:14:18.389204,-0.0830078125,0.03857421875,0.9853515625,0.5657958984375,3.955078125,-92.21923828125
2021-09-22 21:14:18.399180,-0.080078125,0.01806640625,0.98388671875,0.5548095703125,3.9385986328125,-92.197265625
2021-09-22 21:14:18.409058,-0.07275390625,0.0087890625,0.99755859375,0.5657958984375,3.922119140625,-92.1807861328125
2021-09-22 21:14:18.418907,-0.07080078125,-0.0048828125,1.00048828125,0.5767822265625,3.9056396484375,-92.17529296875
2021-09-22 21:14:18.429064,-0.0654296875,-0.0068359375,1.00634765625,0.5767822265625,3.8836669921875,-92.1807861328125
2021-09-22 21:14:18.438901,-0.07080078125,-0.013671875,1.01513671875,0.560302734375,3.856201171875,-92.1917724609375
2021-09-22 21:14:18.448864,-0.07177734375,-0.00927734375,1.00830078125,0.52734375,3.8232421875,-92.2137451171875
2021-09-22 21:14:18.458890,-0.0712890625,-0.009765625,1.00244140625,0.4888916015625,3.7847900390625,-92.2412109375
2021-09-22 21:14:18.468828,-0.0693359375,-0.009765625,1.0068359375,0.4669189453125,3.7353515625,-92.274169921875
2021-09-22 21:14:18.478755,-0.064453125,-0.01513671875,1.00341796875,0.450439453125,3.6859130859375,-92.3126220703125
2021-09-22 21:14:18.488762,-0.060546875,-0.013671875,1.00341796875,0.4559326171875,3.62548828125,-92.3565673828125
2021-09-22 21:14:18.498932,-0.0556640625,-0.01904296875,1.00439453125,0.472412109375,3.5540771484375,-92.39501953125
2021-09-22 21:14:18.508805,-0.0498046875,-0.01953125,1.02392578125,0.4998779296875,3.482666015625,-92.43896484375
2021-09-22 21:14:18.518663,-0.0478515625,-0.021484375,1.02734375,0.5328369140625,3.4002685546875,-92.493896484375
2021-09-22 21:14:18.528635,-0.04296875,-0.017578125,1.025390625,0.560302734375,3.306884765625,-92.548828125
2021-09-22 21:14:18.538526,-0.04150390625,-0.0126953125,1.0224609375,0.5877685546875,3.2135009765625,-92.61474609375
2021-09-22 21:14:18.548620,-0.04150390625,0.0,1.02294921875,0.6207275390625,3.1146240234375,-92.691650390625
2021-09-22 21:14:18.558169,-0.04443359375,0.0107421875,1.02099609375,0.6536865234375,3.021240234375,-92.7740478515625
2021-09-22 21:14:18.568395,-0.046875,0.02099609375,1.017578125,0.7086181640625,2.933349609375,-92.8564453125
2021-09-22 21:14:18.578287,-0.0419921875,0.03076171875,1.02294921875,0.76904296875,2.8509521484375,-92.9443359375
2021-09-22 21:14:18.589095,-0.0400390625,0.0263671875,1.02783203125,0.8349609375,2.7740478515625,-93.0377197265625
2021-09-22 21:14:18.598439,-0.03076171875,0.01416015625,1.029296875,0.889892578125,2.70263671875,-93.1365966796875
2021-09-22 21:14:18.608365,-0.0234375,0.00146484375,1.03466796875,0.9283447265625,2.625732421875,-93.2354736328125
2021-09-22 21:14:18.618412,-0.0283203125,-0.00732421875,1.0380859375,0.933837890625,2.548828125,-93.33984375
2021-09-22 21:14:18.628332,-0.02978515625,-0.01416015625,1.0380859375,0.9063720703125,2.4774169921875,-93.4442138671875
2021-09-22 21:14:18.638217,-0.0361328125,-0.013671875,1.04345703125,0.8349609375,2.4114990234375,-93.5430908203125
2021-09-22 21:14:18.648140,-0.03955078125,-0.01416015625,1.04736328125,0.736083984375,2.3455810546875,-93.6419677734375
2021-09-22 21:14:18.658064,-0.04443359375,-0.01806640625,1.0556640625,0.59326171875,2.2796630859375,-93.7353515625
2021-09-22 21:14:18.668143,-0.04345703125,-0.01806640625,1.056640625,0.428466796875,2.2137451171875,-93.8177490234375
2021-09-22 21:14:18.678043,-0.03955078125,-0.015625,1.05517578125,0.24169921875,2.1478271484375,-93.88916015625
2021-09-22 21:14:18.688029,-0.0361328125,-0.0205078125,1.048828125,0.032958984375,2.0819091796875,-93.955078125
2021-09-22 21:14:18.698222,-0.0302734375,-0.02587890625,1.03515625,-0.186767578125,2.0159912109375,-94.010009765625
2021-09-22 21:14:18.708080,-0.0234375,-0.03271484375,1.01513671875,-0.439453125,1.9500732421875,-94.0594482421875
2021-09-22 21:14:18.717957,-0.0146484375,-0.04638671875,1.001953125,-0.72509765625,1.8731689453125,-94.097900390625
2021-09-22 21:14:18.727843,-0.00390625,-0.056640625,0.98681640625,-1.0382080078125,1.790771484375,-94.130859375
2021-09-22 21:14:18.737772,-0.0009765625,-0.064453125,0.978515625,-1.38427734375,1.7083740234375,-94.15283203125
2021-09-22 21:14:18.747855,-0.001953125,-0.0751953125,0.96728515625,-1.7578125,1.6204833984375,-94.1693115234375
2021-09-22 21:14:18.757791,-0.0029296875,-0.08154296875,0.9599609375,-2.1533203125,1.5325927734375,-94.1748046875
2021-09-22 21:14:18.767706,-0.0029296875,-0.08544921875,0.96044921875,-2.548828125,1.4447021484375,-94.1693115234375
2021-09-22 21:14:18.777639,0.0,-0.0849609375,0.9599609375,-2.9388427734375,1.3568115234375,-94.1583251953125
2021-09-22 21:14:18.787012,0.00048828125,-0.09033203125,0.96875,-3.2904052734375,1.2744140625,-94.141845703125
2021-09-22 21:14:18.797728,0.00830078125,-0.09765625,0.9736328125,-3.603515625,1.197509765625,-94.1143798828125
2021-09-22 21:14:18.807708,0.0126953125,-0.10009765625,0.9794921875,-3.856201171875,1.131591796875,-94.0869140625
2021-09-22 21:14:18.817490,0.01220703125,-0.0986328125,0.9853515625,-4.04296875,1.087646484375,-94.053955078125
2021-09-22 21:14:18.827557,0.01025390625,-0.09619140625,0.990234375,-4.1583251953125,1.0546875,-94.02099609375
2021-09-22 21:14:18.837449,0.0068359375,-0.095703125,0.99560546875,-4.207763671875,1.043701171875,-93.988037109375
2021-09-22 21:14:18.847390,0.00390625,-0.09228515625,0.994140625,-4.2022705078125,1.0491943359375,-93.955078125
2021-09-22 21:14:18.857466,0.00146484375,-0.0869140625,0.99462890625,-4.15283203125,1.0711669921875,-93.9276123046875
2021-09-22 21:14:18.867364,-0.00244140625,-0.07470703125,1.00048828125,-4.0594482421875,1.1041259765625,-93.8946533203125
2021-09-22 21:14:18.877253,-0.005859375,-0.06396484375,0.99951171875,-3.9385986328125,1.142578125,-93.8671875
2021-09-22 21:14:18.887590,-0.015625,-0.05126953125,1.0,-3.80126953125,1.1920166015625,-93.8397216796875
2021-09-22 21:14:18.897387,-0.03125,-0.03857421875,1.00048828125,-3.658447265625,1.25244140625,-93.812255859375
2021-09-22 21:14:18.907350,-0.04248046875,-0.03125,1.0107421875,-3.526611328125,1.307373046875,-93.7738037109375
2021-09-22 21:14:18.917167,-0.0419921875,-0.02587890625,1.01025390625,-3.416748046875,1.3568115234375,-93.7353515625
2021-09-22 21:14:18.927049,-0.0390625,-0.02685546875,1.00537109375,-3.3343505859375,1.4007568359375,-93.69140625
2021-09-22 21:14:18.937189,-0.0400390625,-0.0302734375,1.01025390625,-3.2904052734375,1.42822265625,-93.6419677734375
2021-09-22 21:14:18.947088,-0.03857421875,-0.033203125,1.0126953125,-3.2794189453125,1.4501953125,-93.592529296875
2021-09-22 21:14:18.957042,-0.03759765625,-0.0341796875,1.00830078125,-3.2904052734375,1.461181640625,-93.53759765625
2021-09-22 21:14:18.966951,-0.03759765625,-0.0390625,1.00048828125,-3.328857421875,1.461181640625,-93.482666015625
2021-09-22 21:14:18.977018,-0.04052734375,-0.0458984375,1.0009765625,-3.394775390625,1.4501953125,-93.4222412109375
2021-09-22 21:14:18.986922,-0.0390625,-0.0517578125,0.9931640625,-3.482666015625,1.42822265625,-93.3673095703125
2021-09-22 21:14:18.996973,-0.03466796875,-0.05908203125,0.9873046875,-3.5870361328125,1.395263671875,-93.306884765625
2021-09-22 21:14:19.006909,-0.02880859375,-0.0654296875,0.9814453125,-3.6968994140625,1.351318359375,-93.2464599609375
2021-09-22 21:14:19.016853,-0.025390625,-0.0673828125,0.9814453125,-3.812255859375,1.29638671875,-93.18603515625
2021-09-22 21:14:19.026822,-0.0185546875,-0.07421875,0.978515625,-3.922119140625,1.2359619140625,-93.131103515625
2021-09-22 21:14:19.036759,-0.0166015625,-0.08203125,0.97802734375,-4.02099609375,1.1700439453125,-93.0816650390625
2021-09-22 21:14:19.046938,-0.01416015625,-0.0849609375,0.978515625,-4.1033935546875,1.0986328125,-93.0322265625
2021-09-22 21:14:19.056748,-0.01123046875,-0.0888671875,0.97509765625,-4.163818359375,1.0272216796875,-92.98828125
2021-09-22 21:14:19.066712,-0.00830078125,-0.0947265625,0.966796875,-4.2132568359375,0.955810546875,-92.955322265625
2021-09-22 21:14:19.076546,-0.01025390625,-0.10107421875,0.97216796875,-4.251708984375,0.87890625,-92.9278564453125
2021-09-22 21:14:19.087266,-0.0126953125,-0.1064453125,0.9716796875,-4.28466796875,0.8074951171875,-92.9058837890625
2021-09-22 21:14:19.096687,-0.009765625,-0.10595703125,0.97509765625,-4.306640625,0.7305908203125,-92.889404296875
2021-09-22 21:14:19.106628,-0.00390625,-0.103515625,0.98095703125,-4.3121337890625,0.6536865234375,-92.87841796875
2021-09-22 21:14:19.116485,-0.0029296875,-0.1005859375,0.9970703125,-4.295654296875,0.5767822265625,-92.87841796875
2021-09-22 21:14:19.126557,-0.00244140625,-0.0888671875,0.99755859375,-4.2626953125,0.4998779296875,-92.889404296875
2021-09-22 21:14:19.136525,-0.00244140625,-0.08349609375,0.99462890625,-4.207763671875,0.428466796875,-92.911376953125
2021-09-22 21:14:19.146418,-0.0107421875,-0.07666015625,0.98974609375,-4.141845703125,0.362548828125,-92.9388427734375
2021-09-22 21:14:19.156294,-0.01904296875,-0.07470703125,0.9814453125,-4.0814208984375,0.3076171875,-92.96630859375
2021-09-22 21:14:19.166350,-0.017578125,-0.076171875,0.9677734375,-4.031982421875,0.2471923828125,-92.999267578125
2021-09-22 21:14:19.176337,-0.01953125,-0.07666015625,0.96142578125,-4.010009765625,0.186767578125,-93.021240234375
2021-09-22 21:14:19.186255,-0.021484375,-0.0712890625,0.9609375,-4.0045166015625,0.1263427734375,-93.043212890625
2021-09-22 21:14:19.196415,-0.015625,-0.068359375,0.9638671875,-4.010009765625,0.06591796875,-93.05419921875
2021-09-22 21:14:19.206290,-0.00732421875,-0.06884765625,0.96826171875,-4.0264892578125,0.0,-93.065185546875
2021-09-22 21:14:19.216206,0.00732421875,-0.064453125,0.97119140625,-4.0484619140625,-0.06591796875,-93.076171875
2021-09-22 21:14:19.225794,0.00927734375,-0.05859375,0.970703125,-4.0594482421875,-0.1373291015625,-93.0816650390625
2021-09-22 21:14:19.236221,0.00439453125,-0.05517578125,0.97119140625,-4.0594482421875,-0.19775390625,-93.0926513671875
2021-09-22 21:14:19.246074,-0.00341796875,-0.05029296875,0.9677734375,-4.053955078125,-0.252685546875,-93.09814453125
2021-09-22 21:14:19.256069,-0.0068359375,-0.0498046875,0.9638671875,-4.04296875,-0.296630859375,-93.109130859375
2021-09-22 21:14:19.265990,-0.0078125,-0.0498046875,0.9638671875,-4.02099609375,-0.32958984375,-93.109130859375
2021-09-22 21:14:19.276037,-0.0087890625,-0.04541015625,0.96484375,-3.9935302734375,-0.3570556640625,-93.109130859375
2021-09-22 21:14:19.285961,-0.005859375,-0.037109375,0.96337890625,-3.955078125,-0.3790283203125,-93.09814453125
2021-09-22 21:14:19.296098,-0.00634765625,-0.03564453125,0.9638671875,-3.8946533203125,-0.3955078125,-93.087158203125
2021-09-22 21:14:19.305935,-0.005859375,-0.03076171875,0.96728515625,-3.8232421875,-0.4010009765625,-93.076171875
2021-09-22 21:14:19.315953,-0.0029296875,-0.02490234375,0.96484375,-3.7298583984375,-0.4010009765625,-93.05419921875
2021-09-22 21:14:19.325924,-0.00439453125,-0.0146484375,0.9599609375,-3.62548828125,-0.3955078125,-93.0267333984375
2021-09-22 21:14:19.335754,-0.01123046875,-0.00634765625,0.95751953125,-3.5101318359375,-0.384521484375,-92.98828125
2021-09-22 21:14:19.345737,-0.013671875,-0.00048828125,0.95947265625,-3.394775390625,-0.3680419921875,-92.9443359375
2021-09-22 21:14:19.355829,-0.01416015625,-0.0009765625,0.9619140625,-3.2904052734375,-0.3570556640625,-92.8839111328125
2021-09-22 21:14:19.365687,-0.0078125,-0.00244140625,0.9658203125,-3.197021484375,-0.340576171875,-92.8179931640625
2021-09-22 21:14:19.375652,-0.0009765625,-0.00732421875,0.96826171875,-3.1201171875,-0.3350830078125,-92.74658203125
2021-09-22 21:14:19.385638,0.00341796875,-0.01416015625,0.96826171875,-3.0487060546875,-0.32958984375,-92.669677734375
2021-09-22 21:14:19.395743,0.0087890625,-0.0234375,0.9697265625,-2.9827880859375,-0.318603515625,-92.5872802734375
2021-09-22 21:14:19.405649,0.009765625,-0.0283203125,0.96826171875,-2.9168701171875,-0.3131103515625,-92.5048828125
2021-09-22 21:14:19.415500,0.00537109375,-0.02978515625,0.96728515625,-2.8509521484375,-0.296630859375,-92.4224853515625
2021-09-22 21:14:19.425431,-0.00146484375,-0.02490234375,0.96923828125,-2.7850341796875,-0.274658203125,-92.3345947265625
2021-09-22 21:14:19.435507,-0.00634765625,-0.02001953125,0.9716796875,-2.713623046875,-0.2471923828125,-92.2467041015625
2021-09-22 21:14:19.445419,-0.00927734375,-0.02099609375,0.9794921875,-2.647705078125,-0.2197265625,-92.1588134765625
2021-09-22 21:14:19.455369,-0.0087890625,-0.02734375,0.9853515625,-2.5872802734375,-0.186767578125,-92.0654296875
2021-09-22 21:14:19.465299,-0.0068359375,-0.03955078125,0.984375,-2.52685546875,-0.1483154296875,-91.9720458984375
2021-09-22 21:14:19.475401,-0.00732421875,-0.04736328125,0.9833984375,-2.48291015625,-0.10986328125,-91.878662109375
2021-09-22 21:14:19.485290,-0.00732421875,-0.05078125,0.98095703125,-2.4444580078125,-0.06591796875,-91.7852783203125
2021-09-22 21:14:19.495334,-0.01025390625,-0.052734375,0.98486328125,-2.4169921875,-0.0164794921875,-91.6973876953125
2021-09-22 21:14:19.505223,-0.01708984375,-0.04736328125,0.9892578125,-2.4005126953125,0.032958984375,-91.60400390625
2021-09-22 21:14:19.515105,-0.0224609375,-0.03857421875,0.98486328125,-2.39501953125,0.0933837890625,-91.51611328125
2021-09-22 21:14:19.525160,-0.02880859375,-0.03369140625,0.99365234375,-2.4005126953125,0.1593017578125,-91.42822265625
2021-09-22 21:14:19.535108,-0.02783203125,-0.0302734375,0.98876953125,-2.406005859375,0.230712890625,-91.34033203125
2021-09-22 21:14:19.544974,-0.02197265625,-0.03076171875,0.98486328125,-2.4224853515625,0.296630859375,-91.2579345703125
2021-09-22 21:14:19.555130,-0.0224609375,-0.0322265625,0.9853515625,-2.4444580078125,0.37353515625,-91.1810302734375
2021-09-22 21:14:19.564979,-0.01953125,-0.0322265625,0.9853515625,-2.4664306640625,0.450439453125,-91.1151123046875
2021-09-22 21:14:19.574906,-0.013671875,-0.02978515625,0.98291015625,-2.5048828125,0.52734375,-91.0546875
2021-09-22 21:14:19.585587,-0.01025390625,-0.02734375,0.98291015625,-2.5433349609375,0.604248046875,-91.0052490234375
2021-09-22 21:14:19.594909,-0.0078125,-0.0244140625,0.9814453125,-2.5927734375,0.68115234375,-90.966796875
2021-09-22 21:14:19.604958,-0.01806640625,-0.0234375,0.98193359375,-2.647705078125,0.7635498046875,-90.9393310546875
2021-09-22 21:14:19.614931,-0.029296875,-0.0263671875,0.986328125,-2.70263671875,0.85693359375,-90.9173583984375
2021-09-22 21:14:19.624812,-0.0361328125,-0.0234375,0.982421875,-2.7520751953125,0.9503173828125,-90.90087890625
2021-09-22 21:14:19.634697,-0.04052734375,-0.0126953125,0.98974609375,-2.7850341796875,1.0546875,-90.8843994140625
2021-09-22 21:14:19.644749,-0.04248046875,-0.0068359375,0.99853515625,-2.801513671875,1.1590576171875,-90.8734130859375
2021-09-22 21:14:19.654661,-0.0400390625,-0.01025390625,1.00244140625,-2.7960205078125,1.263427734375,-90.8624267578125
2021-09-22 21:14:19.664597,-0.03515625,-0.02783203125,0.9970703125,-2.7850341796875,1.3677978515625,-90.8514404296875
2021-09-22 21:14:19.674532,-0.02490234375,-0.04345703125,0.98681640625,-2.7685546875,1.4666748046875,-90.845947265625
2021-09-22 21:14:19.684540,-0.0224609375,-0.060546875,0.98779296875,-2.7520751953125,1.5545654296875,-90.8294677734375
2021-09-22 21:14:19.694606,-0.02587890625,-0.0712890625,0.98583984375,-2.7410888671875,1.6424560546875,-90.8184814453125
2021-09-22 21:14:19.704479,-0.02978515625,-0.07861328125,0.9833984375,-2.735595703125,1.7303466796875,-90.8074951171875
2021-09-22 21:14:19.714433,-0.03173828125,-0.08349609375,0.98681640625,-2.74658203125,1.8072509765625,-90.7855224609375
2021-09-22 21:14:19.724450,-0.03271484375,-0.0869140625,0.98974609375,-2.7685546875,1.8731689453125,-90.7635498046875
2021-09-22 21:14:19.734409,-0.03564453125,-0.08642578125,0.99462890625,-2.7960205078125,1.9281005859375,-90.7305908203125
2021-09-22 21:14:19.744309,-0.0390625,-0.083984375,1.00244140625,-2.823486328125,1.9775390625,-90.6866455078125
2021-09-22 21:14:19.754256,-0.03955078125,-0.0791015625,1.0029296875,-2.845458984375,2.021484375,-90.6427001953125
2021-09-22 21:14:19.764301,-0.03759765625,-0.07568359375,1.00634765625,-2.8564453125,2.054443359375,-90.582275390625
2021-09-22 21:14:19.774258,-0.0380859375,-0.07177734375,1.00341796875,-2.8564453125,2.0819091796875,-90.52734375
2021-09-22 21:14:19.784133,-0.0283203125,-0.07421875,1.00390625,-2.8564453125,2.0928955078125,-90.46142578125
2021-09-22 21:14:19.794187,-0.01708984375,-0.0771484375,1.00341796875,-2.8399658203125,2.098388671875,-90.4010009765625
2021-09-22 21:14:19.804271,-0.0048828125,-0.076171875,1.00439453125,-2.8125,2.0819091796875,-90.3460693359375
2021-09-22 21:14:19.814131,0.00146484375,-0.0693359375,1.0009765625,-2.7740478515625,2.0599365234375,-90.3021240234375
2021-09-22 21:14:19.824000,-0.00390625,-0.05859375,0.9990234375,-2.7191162109375,2.032470703125,-90.263671875
2021-09-22 21:14:19.834157,-0.013671875,-0.048828125,0.9970703125,-2.647705078125,1.99951171875,-90.2362060546875
2021-09-22 21:14:19.844048,-0.02197265625,-0.04248046875,0.9951171875,-2.5762939453125,1.9610595703125,-90.2142333984375
2021-09-22 21:14:19.854007,-0.03076171875,-0.04150390625,0.9970703125,-2.5048828125,1.9171142578125,-90.19775390625
2021-09-22 21:14:19.863859,-0.0361328125,-0.04296875,1.00341796875,-2.4334716796875,1.8731689453125,-90.186767578125
2021-09-22 21:14:19.873985,-0.0361328125,-0.04931640625,1.00341796875,-2.3675537109375,1.8182373046875,-90.17578125
2021-09-22 21:14:19.883920,-0.03662109375,-0.05810546875,1.0087890625,-2.296142578125,1.7633056640625,-90.1702880859375
2021-09-22 21:14:19.893966,-0.0283203125,-0.060546875,1.0126953125,-2.2137451171875,1.702880859375,-90.1702880859375
2021-09-22 21:14:19.903897,-0.0244140625,-0.05029296875,1.01123046875,-2.109375,1.636962890625,-90.17578125
2021-09-22 21:14:19.913876,-0.0283203125,-0.0361328125,1.015625,-1.9830322265625,1.5765380859375,-90.1922607421875
2021-09-22 21:14:19.923756,-0.02783203125,-0.02685546875,1.01220703125,-1.845703125,1.5106201171875,-90.208740234375
2021-09-22 21:14:19.933722,-0.0234375,-0.0244140625,1.005859375,-1.6973876953125,1.439208984375,-90.230712890625
2021-09-22 21:14:19.943602,-0.017578125,-0.025390625,1.00341796875,-1.5545654296875,1.3677978515625,-90.263671875
2021-09-22 21:14:19.953718,-0.0087890625,-0.01953125,0.9990234375,-1.417236328125,1.2799072265625,-90.296630859375
2021-09-22 21:14:19.963625,-0.0068359375,-0.01123046875,0.9990234375,-1.285400390625,1.1920166015625,-90.3350830078125
2021-09-22 21:14:19.973538,-0.01123046875,-0.00390625,0.9921875,-1.16455078125,1.0986328125,-90.3790283203125
2021-09-22 21:14:19.983399,-0.0146484375,0.00341796875,0.99658203125,-1.0601806640625,1.0052490234375,-90.4229736328125
2021-09-22 21:14:19.993657,-0.013671875,0.001953125,0.9990234375,-0.977783203125,0.9063720703125,-90.4669189453125
2021-09-22 21:14:20.003568,-0.01171875,0.0009765625,1.0068359375,-0.911865234375,0.8074951171875,-90.5108642578125
2021-09-22 21:14:20.013398,-0.009765625,0.0029296875,1.01220703125,-0.8514404296875,0.7086181640625,-90.54931640625
2021-09-22 21:14:20.023560,-0.01220703125,0.005859375,1.01318359375,-0.802001953125,0.6097412109375,-90.5877685546875
2021-09-22 21:14:20.033358,-0.01318359375,0.0078125,1.01318359375,-0.7470703125,0.5108642578125,-90.6207275390625
2021-09-22 21:14:20.043339,-0.01318359375,0.005859375,1.00927734375,-0.6976318359375,0.41748046875,-90.6536865234375
2021-09-22 21:14:20.053233,-0.01416015625,0.0009765625,1.00634765625,-0.648193359375,0.3350830078125,-90.6756591796875
2021-09-22 21:14:20.063353,-0.01025390625,-0.0048828125,0.99560546875,-0.604248046875,0.252685546875,-90.692138671875
2021-09-22 21:14:20.073242,-0.00439453125,-0.0087890625,0.99462890625,-0.5657958984375,0.1702880859375,-90.703125
2021-09-22 21:14:20.083788,-0.009765625,-0.0107421875,0.99169921875,-0.538330078125,0.0933837890625,-90.7086181640625
2021-09-22 21:14:20.093329,-0.0087890625,-0.01611328125,0.98828125,-0.5218505859375,0.02197265625,-90.7086181640625
2021-09-22 21:14:20.103325,-0.00537109375,-0.01611328125,0.98095703125,-0.5108642578125,-0.0439453125,-90.703125
2021-09-22 21:14:20.113117,-0.00732421875,-0.0126953125,0.984375,-0.4998779296875,-0.1043701171875,-90.6866455078125
2021-09-22 21:14:20.123031,-0.0048828125,-0.01025390625,0.984375,-0.494384765625,-0.164794921875,-90.670166015625
2021-09-22 21:14:20.132916,-0.001953125,-0.00390625,0.986328125,-0.4779052734375,-0.2197265625,-90.648193359375
2021-09-22 21:14:20.143085,0.00048828125,0.00390625,0.98486328125,-0.450439453125,-0.263671875,-90.6207275390625
2021-09-22 21:14:20.152973,0.00146484375,0.009765625,0.9921875,-0.406494140625,-0.3021240234375,-90.59326171875
2021-09-22 21:14:20.162889,0.0029296875,0.01025390625,0.99755859375,-0.3460693359375,-0.3350830078125,-90.5657958984375
2021-09-22 21:14:20.172866,0.001953125,0.00537109375,0.99755859375,-0.274658203125,-0.3570556640625,-90.5438232421875
2021-09-22 21:14:20.182930,0.00439453125,0.0009765625,0.9970703125,-0.1922607421875,-0.3680419921875,-90.516357421875
2021-09-22 21:14:20.192800,0.005859375,-0.0009765625,0.99462890625,-0.1043701171875,-0.3790283203125,-90.494384765625
2021-09-22 21:14:20.202804,0.0029296875,-0.00537109375,0.98876953125,-0.02197265625,-0.3900146484375,-90.472412109375
2021-09-22 21:14:20.212943,0.00146484375,-0.00830078125,0.98681640625,0.0494384765625,-0.3900146484375,-90.450439453125
2021-09-22 21:14:20.222874,-0.00048828125,-0.0029296875,0.990234375,0.10986328125,-0.3955078125,-90.428466796875
2021-09-22 21:14:20.232757,0.0009765625,0.0009765625,0.9970703125,0.15380859375,-0.3955078125,-90.4010009765625
2021-09-22 21:14:20.242749,0.00390625,-0.00244140625,0.9990234375,0.186767578125,-0.406494140625,-90.37353515625
2021-09-22 21:14:20.252684,0.00634765625,0.00341796875,1.01171875,0.2032470703125,-0.41748046875,-90.3515625
2021-09-22 21:14:20.262637,0.0068359375,0.0068359375,1.01416015625,0.2142333984375,-0.4339599609375,-90.3240966796875
2021-09-22 21:14:20.272565,0.00927734375,0.00537109375,1.01513671875,0.2197265625,-0.4449462890625,-90.3021240234375
2021-09-22 21:14:20.282706,0.0087890625,0.00927734375,1.01708984375,0.2197265625,-0.46142578125,-90.2801513671875
2021-09-22 21:14:20.292566,0.0078125,0.01123046875,1.02099609375,0.2252197265625,-0.4779052734375,-90.263671875
2021-09-22 21:14:20.302417,0.00927734375,0.0078125,1.0224609375,0.2197265625,-0.494384765625,-90.2471923828125
2021-09-22 21:14:20.312517,0.00634765625,0.00146484375,1.017578125,0.208740234375,-0.5108642578125,-90.2362060546875
2021-09-22 21:14:20.322600,0.0048828125,-0.00439453125,1.01513671875,0.186767578125,-0.52734375,-90.2252197265625
2021-09-22 21:14:20.332408,0.00634765625,-0.01171875,1.01171875,0.15380859375,-0.538330078125,-90.2197265625
2021-09-22 21:14:20.342347,0.00439453125,-0.01318359375,1.00927734375,0.1153564453125,-0.5548095703125,-90.2197265625
2021-09-22 21:14:20.352410,0.00439453125,-0.01123046875,1.01171875,0.0714111328125,-0.560302734375,-90.2142333984375
2021-09-22 21:14:20.362373,0.0048828125,-0.01171875,1.017578125,0.0274658203125,-0.5712890625,-90.2142333984375
2021-09-22 21:14:20.372299,0.0107421875,-0.0107421875,1.01904296875,-0.010986328125,-0.5767822265625,-90.2197265625
2021-09-22 21:14:20.382175,0.01611328125,-0.0146484375,1.0224609375,-0.0604248046875,-0.5877685546875,-90.230712890625
2021-09-22 21:14:20.392129,0.01953125,-0.017578125,1.0224609375,-0.10986328125,-0.5987548828125,-90.252685546875
2021-09-22 21:14:20.402132,0.0185546875,-0.01708984375,1.017578125,-0.1593017578125,-0.6097412109375,-90.274658203125
2021-09-22 21:14:20.412234,0.01708984375,-0.02001953125,1.01025390625,-0.2197265625,-0.615234375,-90.3076171875
2021-09-22 21:14:20.422116,0.0146484375,-0.02490234375,1.00048828125,-0.296630859375,-0.6207275390625,-90.3460693359375
2021-09-22 21:14:20.432061,0.00830078125,-0.02783203125,0.9951171875,-0.384521484375,-0.6207275390625,-90.384521484375
2021-09-22 21:14:20.441961,0.00439453125,-0.02978515625,0.99462890625,-0.4888916015625,-0.6097412109375,-90.428466796875
2021-09-22 21:14:20.451985,0.0048828125,-0.02587890625,0.9931640625,-0.5987548828125,-0.5987548828125,-90.4669189453125
2021-09-22 21:14:20.461857,0.00634765625,-0.0234375,0.9931640625,-0.714111328125,-0.582275390625,-90.50537109375
2021-09-22 21:14:20.471875,0.00537109375,-0.025390625,1.00146484375,-0.8294677734375,-0.560302734375,-90.538330078125
2021-09-22 21:14:20.481936,0.00634765625,-0.0283203125,1.0009765625,-0.933837890625,-0.52734375,-90.5712890625
2021-09-22 21:14:20.491911,0.005859375,-0.03173828125,0.99609375,-1.021728515625,-0.4888916015625,-90.5987548828125
2021-09-22 21:14:20.501700,0.00732421875,-0.03564453125,0.99755859375,-1.0986328125,-0.439453125,-90.6207275390625
2021-09-22 21:14:20.511748,0.01416015625,-0.03955078125,0.9951171875,-1.1590576171875,-0.384521484375,-90.6427001953125
2021-09-22 21:14:20.521874,0.02099609375,-0.03857421875,0.98388671875,-1.2030029296875,-0.32958984375,-90.6591796875
2021-09-22 21:14:20.531715,0.021484375,-0.03564453125,0.97998046875,-1.241455078125,-0.274658203125,-90.670166015625
2021-09-22 21:14:20.541637,0.017578125,-0.0322265625,0.9814453125,-1.2689208984375,-0.208740234375,-90.6756591796875
2021-09-22 21:14:20.551552,0.01318359375,-0.0302734375,0.98193359375,-1.2908935546875,-0.1373291015625,-90.6756591796875
2021-09-22 21:14:20.561611,0.01171875,-0.02392578125,0.9833984375,-1.3018798828125,-0.0714111328125,-90.670166015625
2021-09-22 21:14:20.571549,0.01171875,-0.02001953125,0.9921875,-1.29638671875,0.0,-90.6591796875
2021-09-22 21:14:20.582122,0.01025390625,-0.0166015625,0.98974609375,-1.2799072265625,0.0714111328125,-90.6427001953125
2021-09-22 21:14:20.591087,0.01025390625,-0.0166015625,0.982421875,-1.25244140625,0.142822265625,-90.6207275390625
2021-09-22 21:14:20.601531,0.0068359375,-0.01806640625,0.97998046875,-1.219482421875,0.2142333984375,-90.59326171875
2021-09-22 21:14:20.611562,0.00146484375,-0.02392578125,0.982421875,-1.1920166015625,0.28564453125,-90.560302734375
2021-09-22 21:14:20.621383,0.00146484375,-0.0263671875,0.97314453125,-1.16455078125,0.3570556640625,-90.5218505859375
2021-09-22 21:14:20.631450,0.00439453125,-0.0244140625,0.9736328125,-1.142578125,0.41748046875,-90.472412109375
2021-09-22 21:14:20.641374,0.0087890625,-0.017578125,0.9736328125,-1.1260986328125,0.472412109375,-90.4229736328125
2021-09-22 21:14:20.651295,0.00732421875,-0.013671875,0.9794921875,-1.1041259765625,0.52734375,-90.37353515625
2021-09-22 21:14:20.661167,0.00146484375,-0.01171875,0.97265625,-1.07666015625,0.582275390625,-90.318603515625
2021-09-22 21:14:20.671318,-0.00244140625,-0.01123046875,0.9736328125,-1.0546875,0.6427001953125,-90.2691650390625
2021-09-22 21:14:20.681260,-0.00732421875,-0.0126953125,0.9677734375,-1.03271484375,0.692138671875,-90.2142333984375
2021-09-22 21:14:20.691150,-0.00830078125,-0.01806640625,0.97119140625,-1.021728515625,0.7470703125,-90.1593017578125
2021-09-22 21:14:20.700974,-0.01025390625,-0.01416015625,0.97265625,-1.0052490234375,0.7965087890625,-90.1043701171875
2021-09-22 21:14:20.711244,-0.015625,-0.00341796875,0.97705078125,-0.9832763671875,0.8514404296875,-90.0494384765625
2021-09-22 21:14:20.721137,-0.01904296875,0.0048828125,0.9794921875,-0.9613037109375,0.90087890625,-89.9945068359375
2021-09-22 21:14:20.731034,-0.02490234375,0.009765625,0.990234375,-0.933837890625,0.955810546875,-89.9395751953125
2021-09-22 21:14:20.740864,-0.02783203125,0.00927734375,0.98974609375,-0.9063720703125,1.0052490234375,-89.8846435546875
2021-09-22 21:14:20.750986,-0.03076171875,0.0078125,0.990234375,-0.867919921875,1.065673828125,-89.835205078125
2021-09-22 21:14:20.760916,-0.03466796875,0.00634765625,0.98681640625,-0.823974609375,1.12060546875,-89.7802734375
2021-09-22 21:14:20.770869,-0.03173828125,0.00146484375,0.99169921875,-0.7745361328125,1.175537109375,-89.7308349609375
2021-09-22 21:14:20.780935,-0.02978515625,-0.0029296875,0.99072265625,-0.7196044921875,1.23046875,-89.681396484375
2021-09-22 21:14:20.790849,-0.02587890625,-0.0009765625,0.986328125,-0.6591796875,1.2799072265625,-89.6319580078125
2021-09-22 21:14:20.800757,-0.03125,0.0009765625,0.98974609375,-0.59326171875,1.3348388671875,-89.5880126953125
2021-09-22 21:14:20.810783,-0.0361328125,0.001953125,0.9970703125,-0.5218505859375,1.38427734375,-89.5440673828125
2021-09-22 21:14:20.820879,-0.037109375,-0.00146484375,0.9990234375,-0.450439453125,1.4337158203125,-89.5001220703125
2021-09-22 21:14:20.830724,-0.03466796875,-0.00146484375,1.00048828125,-0.3790283203125,1.4776611328125,-89.4671630859375
2021-09-22 21:14:20.840600,-0.03173828125,-0.00048828125,1.00146484375,-0.3131103515625,1.51611328125,-89.4287109375
2021-09-22 21:14:20.850661,-0.02587890625,-0.00439453125,1.00244140625,-0.2581787109375,1.5435791015625,-89.4012451171875
2021-09-22 21:14:20.860644,-0.02490234375,-0.00390625,0.9951171875,-0.2142333984375,1.5655517578125,-89.3792724609375
2021-09-22 21:14:20.870537,-0.02490234375,-0.001953125,0.9912109375,-0.1812744140625,1.5765380859375,-89.3572998046875
2021-09-22 21:14:20.880443,-0.02880859375,0.0,0.98583984375,-0.164794921875,1.58203125,-89.3353271484375
2021-09-22 21:14:20.890138,-0.02978515625,-0.001953125,0.9873046875,-0.164794921875,1.58203125,-89.3243408203125
2021-09-22 21:14:20.900379,-0.02783203125,-0.00390625,0.990234375,-0.186767578125,1.571044921875,-89.307861328125
2021-09-22 21:14:20.910482,-0.0244140625,0.0,0.9951171875,-0.2197265625,1.549072265625,-89.3023681640625
2021-09-22 21:14:20.920219,-0.02392578125,0.00146484375,0.9970703125,-0.252685546875,1.5216064453125,-89.2913818359375
2021-09-22 21:14:20.930378,-0.0263671875,-0.00048828125,1.0,-0.296630859375,1.494140625,-89.2913818359375
2021-09-22 21:14:20.940302,-0.02734375,-0.0048828125,1.0,-0.3350830078125,1.461181640625,-89.2913818359375
2021-09-22 21:14:20.950239,-0.02734375,-0.0087890625,0.99755859375,-0.37353515625,1.4227294921875,-89.2913818359375
2021-09-22 21:14:20.960149,-0.0244140625,-0.01220703125,0.99267578125,-0.4119873046875,1.3787841796875,-89.2913818359375
2021-09-22 21:14:20.970221,-0.0224609375,-0.0126953125,0.99365234375,-0.4449462890625,1.3348388671875,-89.296875
2021-09-22 21:14:20.980131,-0.0185546875,-0.013671875,0.98974609375,-0.4779052734375,1.2799072265625,-89.307861328125
2021-09-22 21:14:20.990108,-0.01171875,-0.01416015625,0.984375,-0.50537109375,1.2249755859375,-89.3133544921875
2021-09-22 21:14:21.000124,-0.01171875,-0.01416015625,0.98583984375,-0.52734375,1.16455078125,-89.329833984375
2021-09-22 21:14:21.010268,-0.0166015625,-0.01171875,0.98974609375,-0.538330078125,1.1151123046875,-89.3408203125
2021-09-22 21:14:21.020178,-0.021484375,-0.005859375,0.99169921875,-0.5328369140625,1.065673828125,-89.3572998046875
2021-09-22 21:14:21.030058,-0.0234375,-0.0009765625,0.99853515625,-0.516357421875,1.0162353515625,-89.373779296875
2021-09-22 21:14:21.040227,-0.02197265625,-0.00048828125,1.0,-0.4888916015625,0.9722900390625,-89.395751953125
2021-09-22 21:14:21.049936,-0.0166015625,-0.0009765625,0.9990234375,-0.450439453125,0.9228515625,-89.4122314453125
2021-09-22 21:14:21.059792,-0.01611328125,-0.0009765625,1.00048828125,-0.406494140625,0.8734130859375,-89.4287109375
2021-09-22 21:14:21.069901,-0.01953125,0.0009765625,1.00390625,-0.3570556640625,0.8349609375,-89.4451904296875
2021-09-22 21:14:21.080322,-0.01953125,0.0009765625,1.0068359375,-0.3021240234375,0.791015625,-89.461669921875
2021-09-22 21:14:21.089764,-0.01611328125,-0.0048828125,1.013671875,-0.2471923828125,0.7525634765625,-89.4781494140625
2021-09-22 21:14:21.099766,-0.0146484375,-0.00927734375,1.01904296875,-0.1812744140625,0.714111328125,-89.49462890625
2021-09-22 21:14:21.109683,-0.01513671875,-0.01611328125,1.01611328125,-0.10986328125,0.68115234375,-89.5111083984375
2021-09-22 21:14:21.119759,-0.01953125,-0.01025390625,1.0107421875,-0.0439453125,0.648193359375,-89.527587890625
2021-09-22 21:14:21.129614,-0.029296875,-0.00537109375,1.01123046875,0.0164794921875,0.626220703125,-89.53857421875
2021-09-22 21:14:21.139522,-0.03369140625,0.0009765625,1.01416015625,0.0714111328125,0.6097412109375,-89.549560546875
2021-09-22 21:14:21.149427,-0.0341796875,0.00634765625,1.01318359375,0.1043701171875,0.5877685546875,-89.560546875
2021-09-22 21:14:21.159498,-0.02685546875,0.0078125,1.0126953125,0.120849609375,0.560302734375,-89.5660400390625
2021-09-22 21:14:21.169388,-0.0205078125,0.00537109375,1.0146484375,0.10986328125,0.5328369140625,-89.571533203125
2021-09-22 21:14:21.179583,-0.017578125,0.00439453125,1.02099609375,0.0933837890625,0.4998779296875,-89.58251953125
2021-09-22 21:14:21.189506,-0.0107421875,0.00390625,1.013671875,0.06591796875,0.472412109375,-89.593505859375
2021-09-22 21:14:21.199354,-0.00732421875,0.0078125,1.01513671875,0.032958984375,0.439453125,-89.6044921875
2021-09-22 21:14:21.209280,-0.00439453125,0.0068359375,1.01123046875,0.0,0.406494140625,-89.615478515625
2021-09-22 21:14:21.219183,-0.0029296875,0.00830078125,1.0146484375,-0.0439453125,0.37353515625,-89.6319580078125
2021-09-22 21:14:21.228942,-0.0048828125,0.00537109375,1.00927734375,-0.098876953125,0.3460693359375,-89.6539306640625
2021-09-22 21:14:21.239171,-0.00048828125,-0.00244140625,1.0029296875,-0.1593017578125,0.3131103515625,-89.67041015625
2021-09-22 21:14:21.249484,0.0048828125,-0.0078125,0.994140625,-0.2252197265625,0.2801513671875,-89.6923828125
2021-09-22 21:14:21.259117,0.01123046875,-0.015625,0.99267578125,-0.3021240234375,0.24169921875,-89.71435546875
2021-09-22 21:14:21.269157,0.01806640625,-0.02099609375,0.98828125,-0.37353515625,0.2032470703125,-89.7418212890625
2021-09-22 21:14:21.279055,0.01953125,-0.02001953125,0.98779296875,-0.439453125,0.164794921875,-89.769287109375
2021-09-22 21:14:21.288968,0.015625,-0.017578125,0.98828125,-0.494384765625,0.1318359375,-89.7967529296875
2021-09-22 21:14:21.298939,0.013671875,-0.02099609375,0.9892578125,-0.5438232421875,0.098876953125,-89.82421875
2021-09-22 21:14:21.308955,0.01416015625,-0.02001953125,0.990234375,-0.5877685546875,0.0714111328125,-89.8516845703125
2021-09-22 21:14:21.319004,0.0087890625,-0.0166015625,0.98828125,-0.6207275390625,0.0439453125,-89.8736572265625
2021-09-22 21:14:21.328860,0.00634765625,-0.0107421875,0.9853515625,-0.6536865234375,0.02197265625,-89.8956298828125
2021-09-22 21:14:21.338941,0.00244140625,-0.00927734375,0.98876953125,-0.6866455078125,0.0054931640625,-89.912109375
2021-09-22 21:14:21.348838,0.00244140625,-0.005859375,0.9892578125,-0.714111328125,-0.0054931640625,-89.923095703125
2021-09-22 21:14:21.358410,0.00732421875,-0.00048828125,0.98876953125,-0.7415771484375,-0.02197265625,-89.93408203125
2021-09-22 21:14:21.368310,0.009765625,0.001953125,0.9892578125,-0.76904296875,-0.0439453125,-89.93408203125
2021-09-22 21:14:21.378804,0.01025390625,0.0,0.99462890625,-0.7965087890625,-0.0604248046875,-89.9285888671875
2021-09-22 21:14:21.388425,0.01123046875,0.0009765625,0.9951171875,-0.8184814453125,-0.076904296875,-89.923095703125
2021-09-22 21:14:21.398627,0.00830078125,0.0029296875,0.998046875,-0.8349609375,-0.087890625,-89.912109375
2021-09-22 21:14:21.408521,0.00732421875,0.00244140625,0.9970703125,-0.8349609375,-0.098876953125,-89.901123046875
2021-09-22 21:14:21.418620,0.0048828125,-0.0029296875,0.9931640625,-0.8349609375,-0.1043701171875,-89.8846435546875
2021-09-22 21:14:21.428506,0.0048828125,-0.00830078125,0.99755859375,-0.823974609375,-0.1043701171875,-89.8681640625
2021-09-22 21:14:21.438418,0.0078125,-0.01904296875,0.98828125,-0.8074951171875,-0.1043701171875,-89.8516845703125
2021-09-22 21:14:21.448505,0.0126953125,-0.0263671875,0.984375,-0.7965087890625,-0.098876953125,-89.8297119140625
2021-09-22 21:14:21.458334,0.01123046875,-0.0283203125,0.978515625,-0.7855224609375,-0.098876953125,-89.8077392578125
2021-09-22 21:14:21.468428,0.00634765625,-0.02880859375,0.982421875,-0.7855224609375,-0.0933837890625,-89.7802734375
2021-09-22 21:14:21.478302,0.00146484375,-0.02880859375,0.9794921875,-0.7965087890625,-0.0823974609375,-89.75830078125
2021-09-22 21:14:21.488256,-0.00048828125,-0.0234375,0.98388671875,-0.8074951171875,-0.076904296875,-89.725341796875
2021-09-22 21:14:21.498306,-0.00146484375,-0.013671875,0.9892578125,-0.8184814453125,-0.06591796875,-89.6978759765625
2021-09-22 21:14:21.508271,-0.001953125,-0.005859375,0.98876953125,-0.823974609375,-0.0604248046875,-89.6649169921875
2021-09-22 21:14:21.518223,-0.00439453125,-0.0009765625,0.98779296875,-0.823974609375,-0.054931640625,-89.62646484375
2021-09-22 21:14:21.528254,-0.0087890625,0.00048828125,0.9912109375,-0.8184814453125,-0.0494384765625,-89.5880126953125
2021-09-22 21:14:21.538185,-0.01025390625,0.0009765625,0.9912109375,-0.81298828125,-0.0439453125,-89.5440673828125
2021-09-22 21:14:21.548104,-0.0068359375,-0.00048828125,0.982421875,-0.7965087890625,-0.0384521484375,-89.5001220703125
2021-09-22 21:14:21.558042,-0.00927734375,-0.0029296875,0.98779296875,-0.7855224609375,-0.032958984375,-89.4561767578125
2021-09-22 21:14:21.567944,-0.01025390625,-0.00634765625,0.98583984375,-0.76904296875,-0.032958984375,-89.40673828125
2021-09-22 21:14:21.578614,-0.0087890625,-0.0048828125,0.9853515625,-0.7470703125,-0.0274658203125,-89.3572998046875
2021-09-22 21:14:21.588050,-0.00537109375,-0.00390625,0.98583984375,-0.72509765625,-0.032958984375,-89.307861328125
2021-09-22 21:14:21.597881,-0.0048828125,-0.001953125,0.99462890625,-0.692138671875,-0.032958984375,-89.2584228515625
2021-09-22 21:14:21.607828,-0.0087890625,-0.00634765625,0.994140625,-0.6646728515625,-0.0274658203125,-89.2144775390625
2021-09-22 21:14:21.617747,-0.0087890625,-0.00830078125,0.99169921875,-0.6317138671875,-0.0274658203125,-89.1705322265625
2021-09-22 21:14:21.627827,-0.0068359375,-0.0146484375,0.9912109375,-0.6097412109375,-0.0274658203125,-89.1265869140625
2021-09-22 21:14:21.637811,-0.0048828125,-0.01953125,0.98779296875,-0.59326171875,-0.0274658203125,-89.0826416015625
2021-09-22 21:14:21.647776,-0.00341796875,-0.0263671875,0.98388671875,-0.59326171875,-0.032958984375,-89.044189453125
2021-09-22 21:14:21.657804,0.0,-0.02783203125,0.9775390625,-0.6097412109375,-0.0384521484375,-89.0057373046875
2021-09-22 21:14:21.666985,-0.0029296875,-0.02783203125,0.97607421875,-0.63720703125,-0.0439453125,-88.9727783203125
2021-09-22 21:14:21.677610,-0.00927734375,-0.02783203125,0.97509765625,-0.6756591796875,-0.0494384765625,-88.9398193359375
2021-09-22 21:14:21.687541,-0.0166015625,-0.0244140625,0.97607421875,-0.72509765625,-0.0439453125,-88.912353515625
2021-09-22 21:14:21.697428,-0.0166015625,-0.0244140625,0.97607421875,-0.7745361328125,-0.0439453125,-88.87939453125
2021-09-22 21:14:21.707490,-0.01953125,-0.01953125,0.97900390625,-0.8294677734375,-0.032958984375,-88.8519287109375
2021-09-22 21:14:21.717550,-0.0146484375,-0.01318359375,0.98583984375,-0.8734130859375,-0.0274658203125,-88.824462890625
2021-09-22 21:14:21.727411,-0.0107421875,-0.01318359375,0.9892578125,-0.911865234375,-0.0164794921875,-88.79150390625
2021-09-22 21:14:21.737310,-0.00146484375,-0.01416015625,0.9921875,-0.94482421875,-0.0054931640625,-88.76953125
2021-09-22 21:14:21.747391,0.00537109375,-0.0205078125,0.990234375,-0.9613037109375,0.0,-88.74755859375
2021-09-22 21:14:21.756949,0.0107421875,-0.0263671875,0.98974609375,-0.966796875,0.010986328125,-88.7310791015625
2021-09-22 21:14:21.766865,0.00634765625,-0.02880859375,0.98876953125,-0.955810546875,0.0274658203125,-88.7255859375
2021-09-22 21:14:21.776770,0.00146484375,-0.03076171875,0.98828125,-0.94482421875,0.054931640625,-88.7200927734375
2021-09-22 21:14:21.787268,-0.0009765625,-0.03369140625,0.9912109375,-0.9228515625,0.087890625,-88.7200927734375
2021-09-22 21:14:21.797272,-0.0048828125,-0.0361328125,0.9990234375,-0.9063720703125,0.120849609375,-88.7200927734375
2021-09-22 21:14:21.807119,-0.005859375,-0.037109375,1.00830078125,-0.8843994140625,0.15380859375,-88.7255859375
2021-09-22 21:14:21.817200,-0.00732421875,-0.03515625,1.00830078125,-0.8624267578125,0.186767578125,-88.736572265625
2021-09-22 21:14:21.827100,-0.0107421875,-0.0322265625,1.0126953125,-0.8404541015625,0.2252197265625,-88.7420654296875
2021-09-22 21:14:21.837015,-0.01123046875,-0.02783203125,1.0166015625,-0.81298828125,0.2581787109375,-88.74755859375
2021-09-22 21:14:21.846926,-0.0107421875,-0.0244140625,1.0146484375,-0.791015625,0.296630859375,-88.758544921875
2021-09-22 21:14:21.856973,-0.01123046875,-0.01806640625,1.0205078125,-0.758056640625,0.3350830078125,-88.7640380859375
2021-09-22 21:14:21.867057,-0.01220703125,-0.01220703125,1.017578125,-0.736083984375,0.37353515625,-88.76953125
2021-09-22 21:14:21.876846,-0.013671875,-0.0107421875,1.01513671875,-0.7196044921875,0.4119873046875,-88.7750244140625
2021-09-22 21:14:21.886945,-0.01171875,-0.01416015625,1.01220703125,-0.714111328125,0.439453125,-88.780517578125
2021-09-22 21:14:21.896856,-0.009765625,-0.02099609375,1.00537109375,-0.7305908203125,0.4669189453125,-88.7860107421875
2021-09-22 21:14:21.906771,-0.0029296875,-0.0224609375,1.0048828125,-0.7635498046875,0.4833984375,-88.79150390625
2021-09-22 21:14:21.916755,-0.00146484375,-0.02197265625,1.00244140625,-0.8074951171875,0.4888916015625,-88.7969970703125
2021-09-22 21:14:21.926765,-0.00244140625,-0.02392578125,1.00146484375,-0.8624267578125,0.494384765625,-88.7969970703125
2021-09-22 21:14:21.936849,-0.0068359375,-0.0234375,0.99951171875,-0.933837890625,0.494384765625,-88.7969970703125
2021-09-22 21:14:21.946690,-0.01416015625,-0.01953125,1.00146484375,-0.999755859375,0.4998779296875,-88.7969970703125
2021-09-22 21:14:21.956367,-0.01318359375,-0.017578125,1.00244140625,-1.0711669921875,0.4998779296875,-88.79150390625
2021-09-22 21:14:21.966631,-0.01171875,-0.01806640625,1.00341796875,-1.131591796875,0.4998779296875,-88.79150390625
2021-09-22 21:14:21.976577,-0.00390625,-0.01953125,1.00439453125,-1.1810302734375,0.494384765625,-88.7860107421875
2021-09-22 21:14:21.986474,0.00439453125,-0.0244140625,0.99853515625,-1.219482421875,0.4833984375,-88.780517578125
2021-09-22 21:14:21.996547,0.009765625,-0.03173828125,0.99169921875,-1.2579345703125,0.4669189453125,-88.780517578125
2021-09-22 21:14:22.006585,0.01123046875,-0.03857421875,0.994140625,-1.3018798828125,0.4449462890625,-88.7750244140625
2021-09-22 21:14:22.016422,0.013671875,-0.037109375,0.99267578125,-1.351318359375,0.41748046875,-88.76953125
2021-09-22 21:14:22.026335,0.0146484375,-0.03857421875,0.99072265625,-1.4117431640625,0.384521484375,-88.7640380859375
2021-09-22 21:14:22.036264,0.00732421875,-0.03564453125,0.990234375,-1.483154296875,0.3515625,-88.758544921875
2021-09-22 21:14:22.046384,-0.00244140625,-0.03173828125,0.98681640625,-1.5545654296875,0.3131103515625,-88.74755859375
2021-09-22 21:14:22.056208,-0.00830078125,-0.02587890625,0.99072265625,-1.6259765625,0.2801513671875,-88.7310791015625
2021-09-22 21:14:22.066304,-0.0087890625,-0.0205078125,0.98681640625,-1.6754150390625,0.24169921875,-88.7091064453125
2021-09-22 21:14:22.076848,0.00048828125,-0.01611328125,0.98828125,-1.7083740234375,0.19775390625,-88.681640625
2021-09-22 21:14:22.086206,0.00732421875,-0.0146484375,0.98388671875,-1.7193603515625,0.15380859375,-88.6541748046875
2021-09-22 21:14:22.096133,0.01708984375,-0.021484375,0.98486328125,-1.7083740234375,0.1043701171875,-88.626708984375
2021-09-22 21:14:22.106040,0.025390625,-0.0322265625,0.986328125,-1.680908203125,0.0604248046875,-88.5992431640625
2021-09-22 21:14:22.115949,0.0263671875,-0.0400390625,0.9833984375,-1.6424560546875,0.0164794921875,-88.57177734375
2021-09-22 21:14:22.126007,0.02392578125,-0.03857421875,0.982421875,-1.5875244140625,-0.0164794921875,-88.5498046875
2021-09-22 21:14:22.136075,0.01171875,-0.03271484375,0.9814453125,-1.527099609375,-0.0439453125,-88.52783203125
2021-09-22 21:14:22.145888,0.009765625,-0.025390625,0.982421875,-1.4666748046875,-0.0714111328125,-88.5113525390625
2021-09-22 21:14:22.155859,0.00927734375,-0.021484375,0.97802734375,-1.4007568359375,-0.098876953125,-88.4893798828125
2021-09-22 21:14:22.165934,0.0068359375,-0.01708984375,0.97607421875,-1.3458251953125,-0.1263427734375,-88.4619140625
2021-09-22 21:14:22.175865,0.00390625,-0.01611328125,0.97607421875,-1.3018798828125,-0.15380859375,-88.4344482421875
2021-09-22 21:14:22.185775,0.001953125,-0.0146484375,0.9755859375,-1.2689208984375,-0.186767578125,-88.4014892578125
2021-09-22 21:14:22.195972,-0.0009765625,-0.01513671875,0.97216796875,-1.2469482421875,-0.2252197265625,-88.363037109375
2021-09-22 21:14:22.205817,-0.00439453125,-0.01611328125,0.9677734375,-1.241455078125,-0.2691650390625,-88.3135986328125
2021-09-22 21:14:22.215678,-0.00390625,-0.0107421875,0.96044921875,-1.2469482421875,-0.3240966796875,-88.2476806640625
2021-09-22 21:14:22.225598,-0.0048828125,0.0,0.958984375,-1.2469482421875,-0.384521484375,-88.17626953125
2021-09-22 21:14:22.235336,-0.01123046875,0.01171875,0.96044921875,-1.241455078125,-0.4449462890625,-88.0938720703125
2021-09-22 21:14:22.245580,-0.01513671875,0.01220703125,0.96044921875,-1.2249755859375,-0.5108642578125,-88.00048828125
2021-09-22 21:14:22.255494,-0.0224609375,0.01318359375,0.95703125,-1.1865234375,-0.5657958984375,-87.890625
2021-09-22 21:14:22.265611,-0.02294921875,0.0107421875,0.9609375,-1.131591796875,-0.626220703125,-87.78076171875
2021-09-22 21:14:22.275426,-0.02099609375,0.0166015625,0.96142578125,-1.03271484375,-0.6756591796875,-87.659912109375
2021-09-22 21:14:22.285482,-0.02294921875,0.0205078125,0.95556640625,-0.9063720703125,-0.714111328125,-87.5390625
2021-09-22 21:14:22.295380,-0.03173828125,0.02783203125,0.962890625,-0.7415771484375,-0.736083984375,-87.4237060546875
2021-09-22 21:14:22.305289,-0.03759765625,0.03466796875,0.96337890625,-0.54931640625,-0.7415771484375,-87.3138427734375
2021-09-22 21:14:22.315164,-0.03466796875,0.03662109375,0.97216796875,-0.3240966796875,-0.736083984375,-87.220458984375
2021-09-22 21:14:22.325247,-0.02490234375,0.02783203125,0.97509765625,-0.087890625,-0.7196044921875,-87.1380615234375
2021-09-22 21:14:22.335524,-0.0185546875,0.01611328125,0.9736328125,0.142822265625,-0.692138671875,-87.0831298828125
2021-09-22 21:14:22.345186,-0.0166015625,0.00927734375,0.9775390625,0.3790283203125,-0.6591796875,-87.0501708984375
2021-09-22 21:14:22.355275,-0.0234375,0.00732421875,0.97216796875,0.604248046875,-0.6097412109375,-87.0391845703125
2021-09-22 21:14:22.365128,-0.0361328125,0.01123046875,0.9677734375,0.8074951171875,-0.54931640625,-87.0501708984375
2021-09-22 21:14:22.375043,-0.05517578125,0.02099609375,0.97314453125,0.9832763671875,-0.472412109375,-87.0831298828125
2021-09-22 21:14:22.384973,-0.0673828125,0.02880859375,0.98583984375,1.1370849609375,-0.3790283203125,-87.132568359375
2021-09-22 21:14:22.395043,-0.068359375,0.02978515625,0.99658203125,1.2744140625,-0.2801513671875,-87.198486328125
2021-09-22 21:14:22.404965,-0.0673828125,0.025390625,0.9951171875,1.395263671875,-0.1812744140625,-87.275390625
2021-09-22 21:14:22.415019,-0.064453125,0.01953125,1.0078125,1.5106201171875,-0.0714111328125,-87.374267578125
2021-09-22 21:14:22.425067,-0.05859375,0.01171875,1.00390625,1.6204833984375,0.0384521484375,-87.4896240234375
2021-09-22 21:14:22.434938,-0.05126953125,0.01513671875,0.99853515625,1.7413330078125,0.164794921875,-87.6214599609375
2021-09-22 21:14:22.444814,-0.04833984375,0.02197265625,1.0029296875,1.856689453125,0.2911376953125,-87.7752685546875
2021-09-22 21:14:22.454798,-0.04736328125,0.01953125,1.00341796875,1.9610595703125,0.4229736328125,-87.945556640625
2021-09-22 21:14:22.464869,-0.05078125,0.01806640625,1.0029296875,2.054443359375,0.5657958984375,-88.1378173828125
2021-09-22 21:14:22.474811,-0.048828125,0.01611328125,0.96044921875,2.13134765625,0.703125,-88.341064453125
2021-09-22 21:14:22.484818,0.02392578125,0.0380859375,1.1884765625,2.1697998046875,0.802001953125,-88.5662841796875
2021-09-22 21:14:22.494635,0.04296875,0.02587890625,1.078125,2.08740234375,0.802001953125,-88.7640380859375
2021-09-22 21:14:22.504774,0.0458984375,0.0322265625,1.1279296875,1.944580078125,0.736083984375,-88.9398193359375
2021-09-22 21:14:22.514677,0.0224609375,-0.0078125,0.99462890625,1.7633056640625,0.6591796875,-89.088134765625
2021-09-22 21:14:22.524566,-0.0048828125,0.00390625,0.9765625,1.6259765625,0.5987548828125,-89.241943359375
2021-09-22 21:14:22.534623,-0.01123046875,0.0078125,0.9697265625,1.5380859375,0.54931640625,-89.4012451171875
2021-09-22 21:14:22.544614,-0.0107421875,0.0146484375,1.01806640625,1.5106201171875,0.4998779296875,-89.560546875
2021-09-22 21:14:22.554539,-0.01513671875,-0.01416015625,1.0029296875,1.5380859375,0.472412109375,-89.7088623046875
2021-09-22 21:14:22.564434,0.033203125,-0.01904296875,1.05029296875,1.5985107421875,0.428466796875,-89.8626708984375
2021-09-22 21:14:22.575067,0.0556640625,0.0009765625,1.037109375,1.6754150390625,0.37353515625,-90.0164794921875
2021-09-22 21:14:22.584432,0.05712890625,-0.00048828125,1.1494140625,1.7193603515625,0.2911376953125,-90.15380859375
2021-09-22 21:14:22.594353,0.068359375,-0.009765625,1.02197265625,1.73583984375,0.17578125,-90.2801513671875
2021-09-22 21:14:22.604246,0.0615234375,0.001953125,1.02783203125,1.7413330078125,0.06591796875,-90.4010009765625
2021-09-22 21:14:22.614463,0.05322265625,0.021484375,0.9873046875,1.7742919921875,-0.032958984375,-90.5218505859375
2021-09-22 21:14:22.624362,0.02978515625,0.02734375,0.99560546875,1.834716796875,-0.1043701171875,-90.6427001953125
2021-09-22 21:14:22.634260,0.0224609375,0.0185546875,1.00927734375,1.9061279296875,-0.164794921875,-90.758056640625
2021-09-22 21:14:22.644166,0.0263671875,0.02099609375,0.99169921875,1.9940185546875,-0.1922607421875,-90.8734130859375
2021-09-22 21:14:22.654094,0.04052734375,0.017578125,1.03125,2.0819091796875,-0.208740234375,-90.9942626953125
2021-09-22 21:14:22.664156,0.0419921875,0.02587890625,1.041015625,2.1478271484375,-0.19775390625,-91.1151123046875
2021-09-22 21:14:22.674203,0.0458984375,0.03466796875,1.04443359375,2.1807861328125,-0.186767578125,-91.241455078125
2021-09-22 21:14:22.684091,0.03466796875,0.04052734375,1.025390625,2.1807861328125,-0.15380859375,-91.3623046875
2021-09-22 21:14:22.693952,0.03955078125,0.04736328125,0.99755859375,2.1697998046875,-0.098876953125,-91.483154296875
2021-09-22 21:14:22.703876,0.0400390625,0.04541015625,0.99365234375,2.1533203125,-0.02197265625,-91.593017578125
2021-09-22 21:14:22.713994,0.037109375,0.03662109375,0.98681640625,2.13134765625,0.06591796875,-91.69189453125
2021-09-22 21:14:22.723891,0.03955078125,0.03173828125,0.9794921875,2.1148681640625,0.17578125,-91.7742919921875
2021-09-22 21:14:22.733748,0.03173828125,0.0341796875,0.99365234375,2.098388671875,0.3076171875,-91.845703125
2021-09-22 21:14:22.744049,0.0263671875,0.0419921875,1.00732421875,2.0709228515625,0.4559326171875,-91.91162109375
2021-09-22 21:14:22.753905,0.01953125,0.04833984375,1.01611328125,2.032470703125,0.6097412109375,-91.966552734375
2021-09-22 21:14:22.763789,0.0087890625,0.04833984375,1.01513671875,1.9775390625,0.7745361328125,-92.0050048828125
2021-09-22 21:14:22.773811,0.0048828125,0.0498046875,1.0087890625,1.900634765625,0.9393310546875,-92.032470703125
2021-09-22 21:14:22.783752,-0.00146484375,0.0517578125,1.00146484375,1.8292236328125,1.109619140625,-92.04345703125
2021-09-22 21:14:22.793674,0.0029296875,0.05859375,1.00537109375,1.768798828125,1.2744140625,-92.0379638671875
2021-09-22 21:14:22.803550,0.00341796875,0.0537109375,1.01513671875,1.7138671875,1.4447021484375,-92.0269775390625
2021-09-22 21:14:22.813789,0.0048828125,0.04833984375,1.01318359375,1.669921875,1.6094970703125,-92.0050048828125
2021-09-22 21:14:22.823673,0.0048828125,0.04541015625,1.0146484375,1.6259765625,1.77978515625,-91.9775390625
2021-09-22 21:14:22.833554,0.00048828125,0.04150390625,1.0283203125,1.5875244140625,1.944580078125,-91.944580078125
2021-09-22 21:14:22.843470,0.001953125,0.03955078125,1.03564453125,1.5435791015625,2.098388671875,-91.9061279296875
2021-09-22 21:14:22.853588,-0.00146484375,0.04736328125,1.05419921875,1.505126953125,2.252197265625,-91.8621826171875
2021-09-22 21:14:22.863483,-0.00390625,0.04443359375,1.06494140625,1.4556884765625,2.3895263671875,-91.8182373046875
2021-09-22 21:14:22.873381,0.005859375,0.0361328125,1.068359375,1.395263671875,2.5048828125,-91.768798828125
2021-09-22 21:14:22.883461,0.0107421875,0.01953125,1.07275390625,1.307373046875,2.603759765625,-91.7193603515625
2021-09-22 21:14:22.893258,0.01220703125,0.005859375,1.06494140625,1.1810302734375,2.6806640625,-91.669921875
2021-09-22 21:14:22.903351,0.01171875,-0.00390625,1.0556640625,1.021728515625,2.7301025390625,-91.614990234375
2021-09-22 21:14:22.913261,0.00634765625,-0.01318359375,1.044921875,0.823974609375,2.7630615234375,-91.5545654296875
2021-09-22 21:14:22.923199,0.0087890625,-0.01904296875,1.04296875,0.5987548828125,2.7740478515625,-91.4886474609375
2021-09-22 21:14:22.933099,0.00537109375,-0.025390625,1.04931640625,0.3515625,2.7630615234375,-91.417236328125
2021-09-22 21:14:22.943308,0.0087890625,-0.03564453125,1.04345703125,0.0933837890625,2.7301025390625,-91.3348388671875
2021-09-22 21:14:22.953231,0.009765625,-0.0458984375,1.0380859375,-0.164794921875,2.6806640625,-91.2469482421875
2021-09-22 21:14:22.963081,0.0107421875,-0.05126953125,1.0302734375,-0.4229736328125,2.6092529296875,-91.153564453125
2021-09-22 21:14:22.973159,0.0078125,-0.0498046875,1.02294921875,-0.6646728515625,2.515869140625,-91.0546875
2021-09-22 21:14:22.983055,0.0029296875,-0.04833984375,1.013671875,-0.87890625,2.4169921875,-90.94482421875
2021-09-22 21:14:22.992979,-0.00439453125,-0.0498046875,0.99755859375,-1.07666015625,2.30712890625,-90.8349609375
2021-09-22 21:14:23.002869,-0.013671875,-0.044921875,0.990234375,-1.241455078125,2.1917724609375,-90.714111328125
2021-09-22 21:14:23.013102,-0.02197265625,-0.04443359375,0.9755859375,-1.38427734375,2.0709228515625,-90.5877685546875
2021-09-22 21:14:23.022825,-0.02392578125,-0.04736328125,0.966796875,-1.505126953125,1.9390869140625,-90.46142578125
2021-09-22 21:14:23.032860,-0.029296875,-0.0478515625,0.9541015625,-1.614990234375,1.8017578125,-90.3240966796875
2021-09-22 21:14:23.042801,-0.0341796875,-0.052734375,0.94091796875,-1.7193603515625,1.658935546875,-90.1812744140625
2021-09-22 21:14:23.052717,-0.03759765625,-0.0517578125,0.92822265625,-1.82373046875,1.51611328125,-90.0384521484375
2021-09-22 21:14:23.062658,-0.0419921875,-0.04638671875,0.9248046875,-1.922607421875,1.3677978515625,-89.89013671875
2021-09-22 21:14:23.073212,-0.0439453125,-0.0390625,0.92578125,-2.0159912109375,1.2139892578125,-89.747314453125
2021-09-22 21:14:23.082740,-0.0439453125,-0.03076171875,0.919921875,-2.098388671875,1.0601806640625,-89.6044921875
2021-09-22 21:14:23.092604,-0.04736328125,-0.0224609375,0.9140625,-2.17529296875,0.9063720703125,-89.47265625
2021-09-22 21:14:23.102529,-0.04833984375,-0.02197265625,0.91064453125,-2.2467041015625,0.758056640625,-89.3408203125
2021-09-22 21:14:23.112621,-0.048828125,-0.01953125,0.9091796875,-2.318115234375,0.6097412109375,-89.219970703125
2021-09-22 21:14:23.122551,-0.056640625,-0.009765625,0.919921875,-2.373046875,0.472412109375,-89.09912109375
2021-09-22 21:14:23.132467,-0.05712890625,0.0009765625,0.9267578125,-2.4169921875,0.3460693359375,-88.9892578125
2021-09-22 21:14:23.142692,-0.0517578125,0.00830078125,0.93310546875,-2.43896484375,0.2252197265625,-88.890380859375
2021-09-22 21:14:23.152546,-0.0419921875,0.0146484375,0.935546875,-2.43896484375,0.10986328125,-88.7969970703125
2021-09-22 21:14:23.162387,-0.0341796875,0.01708984375,0.94287109375,-2.4224853515625,0.0,-88.7255859375
2021-09-22 21:14:23.172308,-0.0341796875,0.01806640625,0.943359375,-2.3785400390625,-0.0933837890625,-88.670654296875
2021-09-22 21:14:23.181890,-0.03857421875,0.02001953125,0.9375,-2.3236083984375,-0.17578125,-88.6376953125
2021-09-22 21:14:23.192369,-0.0361328125,0.01806640625,0.9384765625,-2.2576904296875,-0.24169921875,-88.6212158203125
2021-09-22 21:14:23.202190,-0.03369140625,0.02099609375,0.9375,-2.197265625,-0.3021240234375,-88.61572265625
2021-09-22 21:14:23.212326,-0.03076171875,0.01318359375,0.9443359375,-2.142333984375,-0.3570556640625,-88.626708984375
2021-09-22 21:14:23.222143,-0.025390625,0.00830078125,0.9453125,-2.0928955078125,-0.4010009765625,-88.648681640625
2021-09-22 21:14:23.232183,-0.025390625,0.005859375,0.94873046875,-2.0489501953125,-0.439453125,-88.6871337890625
2021-09-22 21:14:23.242080,-0.0234375,0.00244140625,0.95166015625,-2.010498046875,-0.472412109375,-88.736572265625
2021-09-22 21:14:23.252024,-0.025390625,0.0,0.9638671875,-1.9775390625,-0.494384765625,-88.79150390625
2021-09-22 21:14:23.261770,-0.0322265625,-0.001953125,0.96875,-1.9390869140625,-0.50537109375,-88.857421875
2021-09-22 21:14:23.271986,-0.03076171875,-0.00341796875,0.970703125,-1.900634765625,-0.50537109375,-88.9178466796875
2021-09-22 21:14:23.282120,-0.0263671875,-0.0029296875,0.9736328125,-1.845703125,-0.4998779296875,-88.9837646484375
2021-09-22 21:14:23.291915,-0.0234375,-0.00927734375,0.974609375,-1.7962646484375,-0.4888916015625,-89.05517578125
2021-09-22 21:14:23.301973,-0.01904296875,-0.01513671875,0.986328125,-1.73583984375,-0.4779052734375,-89.12109375
2021-09-22 21:14:23.311918,-0.01708984375,-0.0185546875,0.98291015625,-1.669921875,-0.4559326171875,-89.1925048828125
2021-09-22 21:14:23.321845,-0.01220703125,-0.01806640625,0.98388671875,-1.5985107421875,-0.428466796875,-89.263916015625
2021-09-22 21:14:23.331733,-0.0146484375,-0.021484375,0.98046875,-1.5325927734375,-0.4010009765625,-89.329833984375
2021-09-22 21:14:23.341840,-0.0166015625,-0.029296875,0.98193359375,-1.483154296875,-0.3680419921875,-89.395751953125
2021-09-22 21:14:23.351858,-0.01806640625,-0.03515625,0.9794921875,-1.4501953125,-0.3350830078125,-89.4561767578125
2021-09-22 21:14:23.361700,-0.02099609375,-0.0302734375,0.97607421875,-1.42822265625,-0.3021240234375,-89.505615234375
2021-09-22 21:14:23.371605,-0.02392578125,-0.0234375,0.98486328125,-1.40625,-0.263671875,-89.549560546875
2021-09-22 21:14:23.381684,-0.02392578125,-0.01806640625,0.994140625,-1.38427734375,-0.2252197265625,-89.5880126953125
2021-09-22 21:14:23.391607,-0.0205078125,-0.0185546875,0.9951171875,-1.3568115234375,-0.186767578125,-89.6099853515625
2021-09-22 21:14:23.401509,-0.01806640625,-0.0205078125,1.00048828125,-1.3238525390625,-0.1483154296875,-89.6319580078125
2021-09-22 21:14:23.411624,-0.0166015625,-0.029296875,0.9970703125,-1.285400390625,-0.1043701171875,-89.6484375
2021-09-22 21:14:23.421688,-0.0146484375,-0.03662109375,0.998046875,-1.2469482421875,-0.054931640625,-89.6539306640625
2021-09-22 21:14:23.432146,-0.01025390625,-0.0400390625,0.994140625,-1.20849609375,-0.0054931640625,-89.6539306640625
2021-09-22 21:14:23.442003,-0.001953125,-0.04296875,0.99560546875,-1.1700439453125,0.0384521484375,-89.6539306640625
2021-09-22 21:14:23.451641,-0.0009765625,-0.0419921875,1.00341796875,-1.1260986328125,0.087890625,-89.6484375
2021-09-22 21:14:23.461966,0.0,-0.037109375,1.00537109375,-1.07666015625,0.15380859375,-89.6429443359375
2021-09-22 21:14:23.471154,-0.0048828125,-0.02587890625,1.013671875,-1.0162353515625,0.2252197265625,-89.637451171875
2021-09-22 21:14:23.481982,-0.0146484375,-0.0205078125,1.01953125,-0.94482421875,0.3076171875,-89.6319580078125
2021-09-22 21:14:23.491840,-0.0185546875,-0.01806640625,1.02294921875,-0.867919921875,0.3955078125,-89.62646484375
2021-09-22 21:14:23.501746,-0.01904296875,-0.017578125,1.0205078125,-0.791015625,0.494384765625,-89.6209716796875
2021-09-22 21:14:23.511634,-0.0146484375,-0.02294921875,1.01953125,-0.7196044921875,0.5987548828125,-89.615478515625
2021-09-22 21:14:23.521805,-0.0078125,-0.0283203125,1.0263671875,-0.6591796875,0.703125,-89.615478515625
2021-09-22 21:14:23.531721,-0.0048828125,-0.03173828125,1.025390625,-0.6097412109375,0.8074951171875,-89.6209716796875
2021-09-22 21:14:23.541607,-0.001953125,-0.02490234375,1.029296875,-0.5657958984375,0.9173583984375,-89.62646484375
2021-09-22 21:14:23.551567,-0.0068359375,-0.0244140625,1.02880859375,-0.5328369140625,1.0272216796875,-89.6429443359375
2021-09-22 21:14:23.561572,-0.01220703125,-0.021484375,1.0302734375,-0.516357421875,1.142578125,-89.659423828125
2021-09-22 21:14:23.572070,-0.01611328125,-0.0224609375,1.025390625,-0.5218505859375,1.2579345703125,-89.681396484375
2021-09-22 21:14:23.581484,-0.01953125,-0.02001953125,1.02685546875,-0.5438232421875,1.373291015625,-89.703369140625
2021-09-22 21:14:23.591367,-0.01953125,-0.017578125,1.02734375,-0.582275390625,1.483154296875,-89.725341796875
2021-09-22 21:14:23.601272,-0.01708984375,-0.01220703125,1.02734375,-0.6317138671875,1.5875244140625,-89.747314453125
2021-09-22 21:14:23.611363,-0.021484375,-0.0107421875,1.02734375,-0.692138671875,1.69189453125,-89.7637939453125
2021-09-22 21:14:23.621166,-0.02587890625,-0.0126953125,1.0205078125,-0.7525634765625,1.8017578125,-89.7857666015625
2021-09-22 21:14:23.631186,-0.02392578125,-0.01904296875,1.017578125,-0.8294677734375,1.900634765625,-89.80224609375
2021-09-22 21:14:23.641470,-0.0234375,-0.0263671875,1.0146484375,-0.9063720703125,1.99951171875,-89.813232421875
2021-09-22 21:14:23.651401,-0.01953125,-0.02734375,1.0126953125,-0.98876953125,2.0928955078125,-89.8187255859375
2021-09-22 21:14:23.662074,-0.0224609375,-0.02685546875,1.0087890625,-1.065673828125,2.1807861328125,-89.8297119140625
2021-09-22 21:14:23.671093,-0.0234375,-0.0244140625,1.0078125,-1.131591796875,2.26318359375,-89.8297119140625
2021-09-22 21:14:23.680989,-0.02734375,-0.021484375,1.0068359375,-1.1865234375,2.3455810546875,-89.835205078125
2021-09-22 21:14:23.691001,-0.0322265625,-0.0166015625,1.00439453125,-1.23046875,2.4224853515625,-89.8297119140625
2021-09-22 21:14:23.701079,-0.0341796875,-0.01416015625,1.00732421875,-1.2579345703125,2.5048828125,-89.82421875
2021-09-22 21:14:23.711125,-0.03759765625,-0.013671875,1.00390625,-1.2799072265625,2.581787109375,-89.8187255859375
2021-09-22 21:14:23.720933,-0.0341796875,-0.013671875,1.0009765625,-1.2908935546875,2.647705078125,-89.8077392578125
2021-09-22 21:14:23.731082,-0.03515625,-0.01171875,1.00439453125,-1.2908935546875,2.713623046875,-89.791259765625
2021-09-22 21:14:23.740912,-0.03955078125,-0.01025390625,1.005859375,-1.2908935546875,2.7740478515625,-89.769287109375
2021-09-22 21:14:23.750843,-0.04150390625,-0.00830078125,1.0048828125,-1.285400390625,2.83447265625,-89.747314453125
2021-09-22 21:14:23.760669,-0.04638671875,-0.00732421875,1.005859375,-1.2744140625,2.889404296875,-89.725341796875
2021-09-22 21:14:23.770966,-0.04541015625,-0.009765625,1.00537109375,-1.263427734375,2.9388427734375,-89.6923828125
2021-09-22 21:14:23.780899,-0.044921875,-0.0126953125,1.00927734375,-1.25244140625,2.9827880859375,-89.6649169921875
2021-09-22 21:14:23.790762,-0.046875,-0.0126953125,1.01025390625,-1.23046875,3.0157470703125,-89.6319580078125
2021-09-22 21:14:23.800660,-0.05322265625,-0.01025390625,1.00927734375,-1.20849609375,3.0487060546875,-89.5989990234375
2021-09-22 21:14:23.810792,-0.05908203125,-0.00927734375,1.0068359375,-1.1865234375,3.076171875,-89.560546875
2021-09-22 21:14:23.820637,-0.06787109375,-0.01025390625,1.0087890625,-1.175537109375,3.1036376953125,-89.5220947265625
2021-09-22 21:14:23.830484,-0.07421875,-0.00830078125,1.0078125,-1.1700439453125,3.131103515625,-89.4781494140625
2021-09-22 21:14:23.840432,-0.07568359375,-0.01171875,1.00537109375,-1.175537109375,3.1475830078125,-89.4342041015625
2021-09-22 21:14:23.850626,-0.07470703125,-0.017578125,1.00390625,-1.1920166015625,3.153076171875,-89.384765625
2021-09-22 21:14:23.860480,-0.072265625,-0.0224609375,1.00146484375,-1.219482421875,3.1585693359375,-89.329833984375
2021-09-22 21:14:23.870765,-0.06787109375,-0.02685546875,0.99755859375,-1.2469482421875,3.1475830078125,-89.27490234375
2021-09-22 21:14:23.880152,-0.0693359375,-0.02978515625,0.99267578125,-1.285400390625,3.1365966796875,-89.2254638671875
2021-09-22 21:14:23.890273,-0.07080078125,-0.0322265625,0.9912109375,-1.329345703125,3.1201171875,-89.1705322265625
2021-09-22 21:14:23.900107,-0.06884765625,-0.03271484375,0.98681640625,-1.3787841796875,3.09814453125,-89.12109375
2021-09-22 21:14:23.909954,-0.06787109375,-0.03369140625,0.9873046875,-1.42822265625,3.0706787109375,-89.0716552734375
2021-09-22 21:14:23.920008,-0.064453125,-0.03369140625,0.9873046875,-1.4776611328125,3.0322265625,-89.0277099609375
2021-09-22 21:14:23.930012,-0.06298828125,-0.03466796875,0.98779296875,-1.527099609375,2.9937744140625,-88.9892578125
2021-09-22 21:14:23.940054,-0.06396484375,-0.037109375,0.9892578125,-1.571044921875,2.955322265625,-88.956298828125
2021-09-22 21:14:23.949877,-0.06201171875,-0.03759765625,0.98974609375,-1.60400390625,2.911376953125,-88.92333984375
2021-09-22 21:14:23.959774,-0.060546875,-0.0380859375,0.9853515625,-1.6259765625,2.867431640625,-88.9013671875
2021-09-22 21:14:23.969884,-0.060546875,-0.037109375,0.98583984375,-1.636962890625,2.8289794921875,-88.87939453125
2021-09-22 21:14:23.979784,-0.06396484375,-0.03369140625,0.98291015625,-1.6314697265625,2.7960205078125,-88.868408203125
2021-09-22 21:14:23.989775,-0.060546875,-0.029296875,0.98046875,-1.6204833984375,2.7630615234375,-88.857421875
2021-09-22 21:14:23.999709,-0.05712890625,-0.0283203125,0.97998046875,-1.60400390625,2.7301025390625,-88.857421875
2021-09-22 21:14:24.009986,-0.0537109375,-0.0302734375,0.97900390625,-1.5875244140625,2.6971435546875,-88.857421875
2021-09-22 21:14:24.019775,-0.05078125,-0.0302734375,0.9775390625,-1.571044921875,2.6641845703125,-88.868408203125
2021-09-22 21:14:24.029772,-0.05224609375,-0.02978515625,0.9765625,-1.56005859375,2.63671875,-88.8848876953125
2021-09-22 21:14:24.039446,-0.0537109375,-0.03125,0.97607421875,-1.5545654296875,2.61474609375,-88.9068603515625
2021-09-22 21:14:24.049652,-0.0556640625,-0.029296875,0.97412109375,-1.549072265625,2.5927734375,-88.934326171875
2021-09-22 21:14:24.059461,-0.05419921875,-0.03271484375,0.98046875,-1.5435791015625,2.5762939453125,-88.96728515625
2021-09-22 21:14:24.070124,-0.0517578125,-0.03076171875,0.982421875,-1.5380859375,2.559814453125,-89.000244140625
2021-09-22 21:14:24.079419,-0.05029296875,-0.02880859375,0.98046875,-1.527099609375,2.5433349609375,-89.0386962890625
2021-09-22 21:14:24.089287,-0.05078125,-0.02880859375,0.98388671875,-1.51611328125,2.537841796875,-89.0771484375
2021-09-22 21:14:24.099439,-0.05029296875,-0.02880859375,0.98388671875,-1.4996337890625,2.5323486328125,-89.12109375
2021-09-22 21:14:24.109279,-0.04833984375,-0.03173828125,0.98291015625,-1.4776611328125,2.52685546875,-89.1650390625
2021-09-22 21:14:24.119232,-0.041015625,-0.0302734375,0.98046875,-1.4556884765625,2.52685546875,-89.2144775390625
2021-09-22 21:14:24.129259,-0.0400390625,-0.029296875,0.9833984375,-1.42822265625,2.52685546875,-89.263916015625
2021-09-22 21:14:24.139191,-0.04248046875,-0.02978515625,0.982421875,-1.4007568359375,2.52685546875,-89.31884765625
2021-09-22 21:14:24.149058,-0.04296875,-0.02685546875,0.98388671875,-1.3677978515625,2.537841796875,-89.3682861328125
2021-09-22 21:14:24.159283,-0.04345703125,-0.02685546875,0.98193359375,-1.34033203125,2.548828125,-89.4287109375
2021-09-22 21:14:24.169282,-0.04052734375,-0.0302734375,0.9833984375,-1.3128662109375,2.559814453125,-89.483642578125
2021-09-22 21:14:24.179192,-0.0400390625,-0.02880859375,0.984375,-1.29638671875,2.5653076171875,-89.53857421875
2021-09-22 21:14:24.189059,-0.04150390625,-0.02783203125,0.986328125,-1.285400390625,2.581787109375,-89.593505859375
2021-09-22 21:14:24.198944,-0.04296875,-0.02685546875,0.986328125,-1.2799072265625,2.5927734375,-89.6429443359375
2021-09-22 21:14:24.209061,-0.0439453125,-0.02294921875,0.986328125,-1.2799072265625,2.6092529296875,-89.6978759765625
2021-09-22 21:14:24.218918,-0.04248046875,-0.021484375,0.99072265625,-1.2799072265625,2.6202392578125,-89.747314453125
2021-09-22 21:14:24.228866,-0.04150390625,-0.0166015625,0.9931640625,-1.2689208984375,2.6312255859375,-89.791259765625
2021-09-22 21:14:24.239058,-0.04052734375,-0.01220703125,0.99560546875,-1.2579345703125,2.63671875,-89.835205078125
2021-09-22 21:14:24.248830,-0.04150390625,-0.01171875,0.9931640625,-1.241455078125,2.647705078125,-89.879150390625
2021-09-22 21:14:24.258796,-0.0400390625,-0.013671875,0.99365234375,-1.2249755859375,2.6531982421875,-89.9176025390625
2021-09-22 21:14:24.268750,-0.03857421875,-0.015625,0.9892578125,-1.20849609375,2.65869140625,-89.9560546875
2021-09-22 21:14:24.278816,-0.03759765625,-0.0166015625,0.99267578125,-1.197509765625,2.65869140625,-89.989013671875
2021-09-22 21:14:24.288726,-0.03759765625,-0.015625,0.99267578125,-1.1865234375,2.65869140625,-90.02197265625
2021-09-22 21:14:24.298751,-0.0390625,-0.01123046875,0.99755859375,-1.16455078125,2.6641845703125,-90.0494384765625
2021-09-22 21:14:24.308824,-0.0380859375,-0.00830078125,1.0009765625,-1.142578125,2.65869140625,-90.076904296875
2021-09-22 21:14:24.318810,-0.03662109375,-0.00732421875,0.99609375,-1.109619140625,2.65869140625,-90.1043701171875
2021-09-22 21:14:24.328684,-0.03955078125,-0.00732421875,0.9951171875,-1.0821533203125,2.6531982421875,-90.120849609375
2021-09-22 21:14:24.338581,-0.03955078125,-0.00830078125,0.99267578125,-1.0546875,2.647705078125,-90.142822265625
2021-09-22 21:14:24.348477,-0.0380859375,-0.009765625,0.9912109375,-1.0272216796875,2.6422119140625,-90.1593017578125
2021-09-22 21:14:24.358523,-0.0361328125,-0.0126953125,0.9921875,-1.0052490234375,2.6312255859375,-90.1702880859375
2021-09-22 21:14:24.368382,-0.03564453125,-0.0126953125,0.9931640625,-0.98876953125,2.6202392578125,-90.17578125
2021-09-22 21:14:24.378424,-0.03662109375,-0.01220703125,0.99658203125,-0.966796875,2.6092529296875,-90.1812744140625
2021-09-22 21:14:24.388445,-0.03759765625,-0.01123046875,1.0,-0.94482421875,2.5982666015625,-90.1812744140625
2021-09-22 21:14:24.398343,-0.0361328125,-0.01220703125,1.00244140625,-0.9228515625,2.5872802734375,-90.17578125
2021-09-22 21:14:24.408259,-0.03515625,-0.0107421875,1.001953125,-0.889892578125,2.57080078125,-90.1702880859375
2021-09-22 21:14:24.418421,-0.037109375,-0.01416015625,0.9990234375,-0.8624267578125,2.559814453125,-90.164794921875
2021-09-22 21:14:24.428306,-0.03515625,-0.0166015625,0.998046875,-0.8294677734375,2.5433349609375,-90.1593017578125
2021-09-22 21:14:24.438225,-0.03271484375,-0.0166015625,0.9912109375,-0.802001953125,2.52685546875,-90.1483154296875
2021-09-22 21:14:24.448258,-0.02978515625,-0.015625,0.98876953125,-0.7745361328125,2.5048828125,-90.1373291015625
2021-09-22 21:14:24.458444,-0.02880859375,-0.013671875,0.98974609375,-0.7525634765625,2.4774169921875,-90.1318359375
2021-09-22 21:14:24.468350,-0.03271484375,-0.01220703125,0.98974609375,-0.736083984375,2.4554443359375,-90.120849609375
2021-09-22 21:14:24.478199,-0.03369140625,-0.0087890625,0.9931640625,-0.72509765625,2.427978515625,-90.10986328125
2021-09-22 21:14:24.487998,-0.0380859375,-0.0087890625,0.9921875,-0.7196044921875,2.406005859375,-90.1043701171875
2021-09-22 21:14:24.498107,-0.0361328125,-0.01416015625,0.9931640625,-0.7196044921875,2.3785400390625,-90.0933837890625
2021-09-22 21:14:24.507985,-0.037109375,-0.01904296875,0.99267578125,-0.7305908203125,2.3565673828125,-90.0823974609375
2021-09-22 21:14:24.518047,-0.0361328125,-0.02490234375,0.98876953125,-0.736083984375,2.3291015625,-90.0714111328125
2021-09-22 21:14:24.527851,-0.04052734375,-0.029296875,0.9892578125,-0.7415771484375,2.30712890625,-90.06591796875
2021-09-22 21:14:24.537993,-0.0400390625,-0.02880859375,0.99169921875,-0.7415771484375,2.28515625,-90.054931640625
2021-09-22 21:14:24.547873,-0.0361328125,-0.02978515625,0.990234375,-0.736083984375,2.2576904296875,-90.0439453125
2021-09-22 21:14:24.557807,-0.03466796875,-0.033203125,0.9912109375,-0.736083984375,2.230224609375,-90.032958984375
2021-09-22 21:14:24.568430,-0.03369140625,-0.02978515625,0.99072265625,-0.72509765625,2.208251953125,-90.0274658203125
2021-09-22 21:14:24.577691,-0.03662109375,-0.02783203125,0.99462890625,-0.7086181640625,2.1807861328125,-90.02197265625
2021-09-22 21:14:24.587683,-0.0419921875,-0.02294921875,0.99755859375,-0.6866455078125,2.1588134765625,-90.0164794921875
2021-09-22 21:14:24.597727,-0.04345703125,-0.017578125,1.00048828125,-0.6591796875,2.142333984375,-90.0164794921875
2021-09-22 21:14:24.607892,-0.0419921875,-0.01318359375,1.00341796875,-0.626220703125,2.1258544921875,-90.010986328125
2021-09-22 21:14:24.617894,-0.041015625,-0.01220703125,1.00390625,-0.582275390625,2.109375,-90.010986328125
2021-09-22 21:14:24.627641,-0.04248046875,-0.009765625,1.00244140625,-0.538330078125,2.0928955078125,-90.0164794921875
2021-09-22 21:14:24.637464,-0.04150390625,-0.0107421875,1.00048828125,-0.4998779296875,2.076416015625,-90.0164794921875
2021-09-22 21:14:24.647642,-0.0390625,-0.013671875,1.00048828125,-0.472412109375,2.0654296875,-90.02197265625
2021-09-22 21:14:24.657541,-0.03857421875,-0.013671875,1.0,-0.4559326171875,2.0489501953125,-90.032958984375
2021-09-22 21:14:24.667438,-0.037109375,-0.01416015625,1.00146484375,-0.4449462890625,2.0379638671875,-90.0439453125
2021-09-22 21:14:24.677428,-0.03759765625,-0.01025390625,1.00048828125,-0.439453125,2.021484375,-90.054931640625
2021-09-22 21:14:24.687511,-0.04150390625,-0.0078125,1.00048828125,-0.439453125,2.010498046875,-90.0714111328125
2021-09-22 21:14:24.697429,-0.04833984375,-0.0048828125,0.99951171875,-0.4449462890625,2.0050048828125,-90.0823974609375
2021-09-22 21:14:24.707309,-0.04931640625,-0.00634765625,1.00146484375,-0.450439453125,1.9940185546875,-90.098876953125
2021-09-22 21:14:24.717233,-0.048828125,-0.00634765625,1.0029296875,-0.4559326171875,1.988525390625,-90.1043701171875
2021-09-22 21:14:24.727340,-0.04541015625,-0.00537109375,1.001953125,-0.4559326171875,1.9775390625,-90.1153564453125
2021-09-22 21:14:24.737216,-0.0390625,-0.00537109375,1.001953125,-0.4559326171875,1.966552734375,-90.120849609375
2021-09-22 21:14:24.747279,-0.03759765625,-0.00830078125,1.0029296875,-0.450439453125,1.95556640625,-90.1263427734375
2021-09-22 21:14:24.757448,-0.03369140625,-0.0068359375,0.99853515625,-0.4449462890625,1.944580078125,-90.1318359375
2021-09-22 21:14:24.767374,-0.0341796875,-0.0068359375,0.9912109375,-0.439453125,1.93359375,-90.1373291015625
2021-09-22 21:14:24.777206,-0.03857421875,-0.00732421875,0.99072265625,-0.4339599609375,1.9281005859375,-90.142822265625
2021-09-22 21:14:24.787046,-0.03857421875,-0.00732421875,0.9892578125,-0.428466796875,1.922607421875,-90.1483154296875
2021-09-22 21:14:24.797064,-0.037109375,-0.009765625,0.99072265625,-0.428466796875,1.9171142578125,-90.15380859375
2021-09-22 21:14:24.807025,-0.03662109375,-0.009765625,0.99267578125,-0.4339599609375,1.91162109375,-90.1593017578125
2021-09-22 21:14:24.816982,-0.037109375,-0.01171875,0.99365234375,-0.4339599609375,1.91162109375,-90.1593017578125
2021-09-22 21:14:24.826908,-0.0361328125,-0.013671875,0.994140625,-0.4339599609375,1.9061279296875,-90.164794921875
2021-09-22 21:14:24.836995,-0.037109375,-0.0146484375,0.99609375,-0.428466796875,1.9061279296875,-90.164794921875
2021-09-22 21:14:24.846906,-0.0361328125,-0.01123046875,0.99609375,-0.4229736328125,1.91162109375,-90.1702880859375
2021-09-22 21:14:24.856794,-0.03759765625,-0.0107421875,0.9951171875,-0.4229736328125,1.91162109375,-90.1702880859375
2021-09-22 21:14:24.866764,-0.03759765625,-0.0126953125,0.9912109375,-0.428466796875,1.9171142578125,-90.17578125
2021-09-22 21:14:24.876556,-0.04052734375,-0.0146484375,0.99609375,-0.4339599609375,1.922607421875,-90.17578125
2021-09-22 21:14:24.886740,-0.0419921875,-0.017578125,0.99462890625,-0.450439453125,1.9281005859375,-90.17578125
2021-09-22 21:14:24.896922,-0.0419921875,-0.0205078125,0.99609375,-0.4669189453125,1.9390869140625,-90.17578125
2021-09-22 21:14:24.906807,-0.03662109375,-0.02001953125,0.99755859375,-0.4888916015625,1.944580078125,-90.17578125
2021-09-22 21:14:24.916778,-0.03369140625,-0.01513671875,0.99462890625,-0.4998779296875,1.9500732421875,-90.17578125
2021-09-22 21:14:24.926762,-0.0361328125,-0.0126953125,0.99560546875,-0.5108642578125,1.9610595703125,-90.1812744140625
2021-09-22 21:14:24.936518,-0.03466796875,-0.0146484375,0.99609375,-0.52734375,1.9720458984375,-90.186767578125
2021-09-22 21:14:24.946437,-0.0302734375,-0.01513671875,0.9931640625,-0.54931640625,1.9830322265625,-90.19775390625
2021-09-22 21:14:24.956472,-0.03173828125,-0.01708984375,0.9970703125,-0.5712890625,1.9940185546875,-90.208740234375
2021-09-22 21:14:24.966455,-0.03662109375,-0.01806640625,1.00048828125,-0.5987548828125,2.010498046875,-90.2197265625
2021-09-22 21:14:24.976417,-0.03759765625,-0.01513671875,1.00244140625,-0.626220703125,2.0269775390625,-90.2362060546875
2021-09-22 21:14:24.986262,-0.0341796875,-0.01318359375,1.00390625,-0.6591796875,2.04345703125,-90.252685546875
2021-09-22 21:14:24.996379,-0.033203125,-0.015625,0.998046875,-0.692138671875,2.0599365234375,-90.274658203125
2021-09-22 21:14:25.006392,-0.03369140625,-0.0185546875,1.00146484375,-0.72509765625,2.0709228515625,-90.2911376953125
2021-09-22 21:14:25.016260,-0.03515625,-0.01904296875,0.9990234375,-0.7525634765625,2.08740234375,-90.3131103515625
2021-09-22 21:14:25.026185,-0.03466796875,-0.01953125,1.00048828125,-0.780029296875,2.1038818359375,-90.3350830078125
2021-09-22 21:14:25.036071,-0.03173828125,-0.025390625,1.001953125,-0.802001953125,2.120361328125,-90.3515625
2021-09-22 21:14:25.046213,-0.0322265625,-0.03076171875,1.0068359375,-0.823974609375,2.13134765625,-90.37353515625
2021-09-22 21:14:25.056295,-0.03466796875,-0.0302734375,1.00830078125,-0.8404541015625,2.1478271484375,-90.3955078125
2021-09-22 21:14:25.067094,-0.0341796875,-0.0234375,1.0068359375,-0.8514404296875,2.164306640625,-90.41748046875
2021-09-22 21:14:25.076306,-0.03466796875,-0.01904296875,1.0048828125,-0.8624267578125,2.1807861328125,-90.439453125
2021-09-22 21:14:25.086263,-0.0341796875,-0.021484375,1.00244140625,-0.8734130859375,2.1917724609375,-90.4669189453125
2021-09-22 21:14:25.096229,-0.03466796875,-0.0234375,1.0,-0.8953857421875,2.197265625,-90.4888916015625
2021-09-22 21:14:25.106029,-0.0380859375,-0.02099609375,0.99462890625,-0.9173583984375,2.2027587890625,-90.50537109375
2021-09-22 21:14:25.115977,-0.041015625,-0.01953125,0.9951171875,-0.9393310546875,2.2027587890625,-90.52734375
2021-09-22 21:14:25.125823,-0.04248046875,-0.01513671875,0.99853515625,-0.966796875,2.2027587890625,-90.5438232421875
2021-09-22 21:14:25.136037,-0.03955078125,-0.01318359375,0.998046875,-0.9942626953125,2.197265625,-90.5548095703125
2021-09-22 21:14:25.145926,-0.0341796875,-0.00732421875,0.99951171875,-1.0162353515625,2.186279296875,-90.5657958984375
2021-09-22 21:14:25.155835,-0.033203125,-0.00537109375,1.00146484375,-1.0272216796875,2.1697998046875,-90.5767822265625
2021-09-22 21:14:25.165924,-0.03173828125,-0.00830078125,0.99853515625,-1.0382080078125,2.1533203125,-90.582275390625
2021-09-22 21:14:25.175866,-0.029296875,-0.00634765625,0.99169921875,-1.043701171875,2.13134765625,-90.59326171875
2021-09-22 21:14:25.185866,-0.03125,-0.00439453125,0.98974609375,-1.043701171875,2.109375,-90.604248046875
2021-09-22 21:14:25.195847,-0.0302734375,-0.0029296875,0.98779296875,-1.043701171875,2.0819091796875,-90.6097412109375
2021-09-22 21:14:25.205825,-0.025390625,0.00146484375,0.9853515625,-1.0382080078125,2.0489501953125,-90.6207275390625
2021-09-22 21:14:25.215724,-0.0224609375,0.00537109375,0.98046875,-1.0382080078125,2.0050048828125,-90.6317138671875
2021-09-22 21:14:25.225594,-0.0234375,0.00537109375,0.98095703125,-1.0382080078125,1.9610595703125,-90.6427001953125
2021-09-22 21:14:25.235761,-0.0263671875,0.0048828125,0.9833984375,-1.043701171875,1.91162109375,-90.6536865234375
2021-09-22 21:14:25.245658,-0.0283203125,0.0048828125,0.982421875,-1.043701171875,1.86767578125,-90.6646728515625
2021-09-22 21:14:25.255644,-0.03125,0.00439453125,0.97998046875,-1.0491943359375,1.8182373046875,-90.670166015625
2021-09-22 21:14:25.265654,-0.03125,-0.00390625,0.9833984375,-1.0491943359375,1.7742919921875,-90.68115234375
2021-09-22 21:14:25.275664,-0.02783203125,-0.01220703125,0.98095703125,-1.043701171875,1.724853515625,-90.6866455078125
2021-09-22 21:14:25.285477,-0.0263671875,-0.015625,0.9794921875,-1.03271484375,1.6754150390625,-90.6976318359375
2021-09-22 21:14:25.295458,-0.02294921875,-0.01416015625,0.9736328125,-1.0162353515625,1.6259765625,-90.703125
2021-09-22 21:14:25.305402,-0.02197265625,-0.01513671875,0.97119140625,-0.9942626953125,1.571044921875,-90.7086181640625
2021-09-22 21:14:25.315471,-0.02490234375,-0.013671875,0.9736328125,-0.9722900390625,1.527099609375,-90.7196044921875
2021-09-22 21:14:25.325280,-0.02685546875,-0.013671875,0.974609375,-0.9393310546875,1.483154296875,-90.72509765625
2021-09-22 21:14:25.335223,-0.02783203125,-0.01171875,0.9765625,-0.9063720703125,1.4447021484375,-90.736083984375
2021-09-22 21:14:25.345172,-0.0263671875,-0.01513671875,0.98046875,-0.867919921875,1.40625,-90.7415771484375
2021-09-22 21:14:25.355239,-0.02392578125,-0.0166015625,0.984375,-0.8184814453125,1.373291015625,-90.7525634765625
2021-09-22 21:14:25.365190,-0.02294921875,-0.015625,0.99072265625,-0.76904296875,1.3458251953125,-90.76904296875
2021-09-22 21:14:25.375199,-0.025390625,-0.013671875,0.99609375,-0.7086181640625,1.318359375,-90.780029296875
2021-09-22 21:14:25.385221,-0.02392578125,-0.01318359375,0.9892578125,-0.648193359375,1.29638671875,-90.7965087890625
2021-09-22 21:14:25.395067,-0.02294921875,-0.01123046875,0.98828125,-0.5987548828125,1.2799072265625,-90.81298828125
2021-09-22 21:14:25.405088,-0.02783203125,-0.01220703125,0.9912109375,-0.5657958984375,1.263427734375,-90.8349609375
2021-09-22 21:14:25.415036,-0.02783203125,-0.01123046875,0.9921875,-0.5438232421875,1.2469482421875,-90.8514404296875
2021-09-22 21:14:25.425022,-0.029296875,-0.00830078125,0.99072265625,-0.52734375,1.2359619140625,-90.8734130859375
2021-09-22 21:14:25.434970,-0.03271484375,-0.0068359375,0.99609375,-0.52734375,1.23046875,-90.8953857421875
2021-09-22 21:14:25.444909,-0.0283203125,-0.009765625,1.00048828125,-0.52734375,1.219482421875,-90.9173583984375
2021-09-22 21:14:25.455101,-0.02587890625,-0.01123046875,0.99560546875,-0.5328369140625,1.2139892578125,-90.94482421875
2021-09-22 21:14:25.465208,-0.02685546875,-0.01318359375,0.99951171875,-0.538330078125,1.20849609375,-90.966796875
2021-09-22 21:14:25.475009,-0.02392578125,-0.0126953125,0.9951171875,-0.5438232421875,1.20849609375,-90.98876953125
2021-09-22 21:14:25.484761,-0.01953125,-0.015625,0.99365234375,-0.5548095703125,1.2030029296875,-91.0162353515625
2021-09-22 21:14:25.494628,-0.0185546875,-0.0126953125,0.99755859375,-0.560302734375,1.197509765625,-91.0382080078125
2021-09-22 21:14:25.504682,-0.0166015625,-0.00927734375,0.9951171875,-0.560302734375,1.1920166015625,-91.065673828125
2021-09-22 21:14:25.514740,-0.01416015625,-0.00732421875,0.99609375,-0.5548095703125,1.1865234375,-91.0931396484375
2021-09-22 21:14:25.524737,-0.01513671875,-0.00146484375,0.99560546875,-0.538330078125,1.1865234375,-91.12060546875
2021-09-22 21:14:25.534835,-0.01708984375,-0.00048828125,0.994140625,-0.516357421875,1.1810302734375,-91.142578125
2021-09-22 21:14:25.544678,-0.021484375,-0.0009765625,0.998046875,-0.494384765625,1.1810302734375,-91.1700439453125
2021-09-22 21:14:25.554479,-0.01953125,-0.00439453125,0.99658203125,-0.4779052734375,1.1810302734375,-91.1865234375
2021-09-22 21:14:25.565203,-0.01953125,-0.01025390625,0.9921875,-0.4669189453125,1.175537109375,-91.2030029296875
2021-09-22 21:14:25.574451,-0.01806640625,-0.0126953125,0.99072265625,-0.4559326171875,1.16455078125,-91.2139892578125
2021-09-22 21:14:25.584639,-0.01708984375,-0.01171875,0.99169921875,-0.450439453125,1.153564453125,-91.219482421875
2021-09-22 21:14:25.594546,-0.01708984375,-0.01171875,0.9912109375,-0.4449462890625,1.1370849609375,-91.219482421875
2021-09-22 21:14:25.604456,-0.013671875,-0.0087890625,0.9970703125,-0.4339599609375,1.12060546875,-91.2139892578125
2021-09-22 21:14:25.614258,-0.0078125,-0.00537109375,0.998046875,-0.41748046875,1.0986328125,-91.2030029296875
2021-09-22 21:14:25.624324,-0.00830078125,-0.005859375,1.00244140625,-0.3900146484375,1.07666015625,-91.1920166015625
2021-09-22 21:14:25.634308,-0.0087890625,-0.00439453125,1.00048828125,-0.362548828125,1.0601806640625,-91.1810302734375
2021-09-22 21:14:25.644271,-0.00732421875,-0.00634765625,1.0,-0.32958984375,1.0382080078125,-91.16455078125
2021-09-22 21:14:25.654385,-0.0087890625,-0.00341796875,0.9970703125,-0.3021240234375,1.021728515625,-91.153564453125
2021-09-22 21:14:25.664349,-0.009765625,-0.001953125,1.001953125,-0.274658203125,1.0052490234375,-91.1370849609375
2021-09-22 21:14:25.674300,-0.00927734375,-0.0009765625,1.001953125,-0.2471923828125,0.9832763671875,-91.1260986328125
2021-09-22 21:14:25.684036,-0.009765625,0.00244140625,1.00439453125,-0.2252197265625,0.966796875,-91.1151123046875
2021-09-22 21:14:25.694195,-0.00732421875,0.00390625,1.00634765625,-0.19775390625,0.94482421875,-91.1041259765625
2021-09-22 21:14:25.704232,-0.0078125,0.0048828125,1.0068359375,-0.17578125,0.9228515625,-91.0931396484375
2021-09-22 21:14:25.713968,-0.00927734375,0.00146484375,1.00537109375,-0.1593017578125,0.90087890625,-91.0821533203125
2021-09-22 21:14:25.723947,-0.00927734375,-0.0009765625,1.00634765625,-0.1483154296875,0.8843994140625,-91.0711669921875
2021-09-22 21:14:25.734008,-0.01123046875,-0.00341796875,1.00341796875,-0.1483154296875,0.8624267578125,-91.065673828125
2021-09-22 21:14:25.743977,-0.0126953125,-0.0068359375,1.0048828125,-0.1593017578125,0.845947265625,-91.0546875
2021-09-22 21:14:25.753865,-0.013671875,-0.00634765625,0.99951171875,-0.1702880859375,0.8294677734375,-91.043701171875
2021-09-22 21:14:25.763835,-0.01220703125,-0.0078125,0.9990234375,-0.1812744140625,0.81298828125,-91.03271484375
2021-09-22 21:14:25.773739,-0.0126953125,-0.00830078125,0.9970703125,-0.2032470703125,0.802001953125,-91.0162353515625
2021-09-22 21:14:25.783827,-0.0107421875,-0.0087890625,0.99462890625,-0.2197265625,0.791015625,-91.0052490234375
2021-09-22 21:14:25.793733,-0.00927734375,-0.0107421875,0.99267578125,-0.24169921875,0.780029296875,-90.9942626953125
2021-09-22 21:14:25.803742,-0.005859375,-0.0078125,0.99267578125,-0.263671875,0.7635498046875,-90.9832763671875
2021-09-22 21:14:25.813622,-0.00732421875,-0.00244140625,0.99609375,-0.2801513671875,0.758056640625,-90.9722900390625
2021-09-22 21:14:25.823686,-0.01025390625,0.001953125,0.99853515625,-0.296630859375,0.7470703125,-90.9613037109375
2021-09-22 21:14:25.833588,-0.013671875,0.0078125,1.0029296875,-0.3021240234375,0.7470703125,-90.9503173828125
2021-09-22 21:14:25.843564,-0.01513671875,0.00830078125,1.00439453125,-0.3021240234375,0.7470703125,-90.94482421875
2021-09-22 21:14:25.853730,-0.0126953125,0.00634765625,0.9990234375,-0.296630859375,0.7470703125,-90.9393310546875
2021-09-22 21:14:25.863572,-0.01318359375,-0.00048828125,0.99609375,-0.3021240234375,0.7470703125,-90.9283447265625
2021-09-22 21:14:25.873628,-0.01220703125,-0.0048828125,0.98828125,-0.3076171875,0.7470703125,-90.9228515625
2021-09-22 21:14:25.883434,-0.01416015625,-0.01220703125,0.9873046875,-0.318603515625,0.7470703125,-90.9173583984375
2021-09-22 21:14:25.893283,-0.013671875,-0.015625,0.986328125,-0.340576171875,0.7470703125,-90.911865234375
2021-09-22 21:14:25.903258,-0.01416015625,-0.01416015625,0.990234375,-0.3680419921875,0.7470703125,-90.90087890625
2021-09-22 21:14:25.913411,-0.0166015625,-0.0087890625,0.99609375,-0.384521484375,0.7525634765625,-90.889892578125
2021-09-22 21:14:25.923239,-0.02001953125,-0.00244140625,0.99853515625,-0.3900146484375,0.758056640625,-90.87890625
2021-09-22 21:14:25.933223,-0.01953125,0.0,0.9990234375,-0.3900146484375,0.7635498046875,-90.867919921875
2021-09-22 21:14:25.943011,-0.0166015625,-0.0029296875,0.99609375,-0.3900146484375,0.76904296875,-90.8514404296875
2021-09-22 21:14:25.953264,-0.0166015625,-0.0029296875,0.99609375,-0.384521484375,0.7745361328125,-90.8404541015625
2021-09-22 21:14:25.963045,-0.0185546875,-0.0078125,0.998046875,-0.384521484375,0.7745361328125,-90.823974609375
2021-09-22 21:14:25.973058,-0.01806640625,-0.01318359375,0.994140625,-0.3900146484375,0.7855224609375,-90.8074951171875
2021-09-22 21:14:25.983065,-0.01806640625,-0.015625,0.99755859375,-0.3900146484375,0.791015625,-90.7855224609375
2021-09-22 21:14:25.993075,-0.01806640625,-0.015625,0.99853515625,-0.4010009765625,0.7965087890625,-90.76904296875
2021-09-22 21:14:26.003053,-0.017578125,-0.009765625,0.99853515625,-0.4010009765625,0.7965087890625,-90.7525634765625
2021-09-22 21:14:26.012932,-0.01953125,-0.0068359375,0.9990234375,-0.406494140625,0.802001953125,-90.736083984375
2021-09-22 21:14:26.022798,-0.0234375,-0.00341796875,0.99462890625,-0.4119873046875,0.8074951171875,-90.7196044921875
2021-09-22 21:14:26.032837,-0.025390625,-0.00439453125,0.99560546875,-0.41748046875,0.81298828125,-90.6976318359375
2021-09-22 21:14:26.043020,-0.02490234375,-0.00537109375,0.99267578125,-0.4229736328125,0.81298828125,-90.6756591796875
2021-09-22 21:14:26.052829,-0.0234375,-0.0048828125,0.998046875,-0.439453125,0.81298828125,-90.6536865234375
2021-09-22 21:14:26.063579,-0.0234375,-0.0048828125,0.99658203125,-0.4559326171875,0.8184814453125,-90.6317138671875
2021-09-22 21:14:26.072960,-0.02001953125,-0.00732421875,0.99609375,-0.4669189453125,0.81298828125,-90.6097412109375
2021-09-22 21:14:26.082877,-0.01806640625,-0.01025390625,0.99755859375,-0.4833984375,0.81298828125,-90.59326171875
2021-09-22 21:14:26.092715,-0.0185546875,-0.009765625,0.99462890625,-0.4888916015625,0.81298828125,-90.5712890625
2021-09-22 21:14:26.102655,-0.021484375,-0.01318359375,0.99267578125,-0.494384765625,0.8184814453125,-90.54931640625
2021-09-22 21:14:26.112732,-0.021484375,-0.01318359375,0.9912109375,-0.494384765625,0.823974609375,-90.5328369140625
2021-09-22 21:14:26.122613,-0.0205078125,-0.0107421875,0.990234375,-0.4998779296875,0.823974609375,-90.516357421875
2021-09-22 21:14:26.132573,-0.01953125,-0.01123046875,0.98828125,-0.4998779296875,0.8294677734375,-90.4998779296875
2021-09-22 21:14:26.142473,-0.02197265625,-0.0048828125,0.98828125,-0.5108642578125,0.8349609375,-90.4833984375
2021-09-22 21:14:26.152563,-0.0205078125,-0.00439453125,0.982421875,-0.516357421875,0.8404541015625,-90.472412109375
2021-09-22 21:14:26.162440,-0.01953125,-0.00830078125,0.9794921875,-0.5328369140625,0.8404541015625,-90.46142578125
2021-09-22 21:14:26.172354,-0.01806640625,-0.0078125,0.98046875,-0.54931640625,0.8404541015625,-90.450439453125
2021-09-22 21:14:26.182298,-0.0146484375,-0.00732421875,0.97900390625,-0.560302734375,0.845947265625,-90.439453125
2021-09-22 21:14:26.192359,-0.01416015625,-0.00634765625,0.98095703125,-0.5657958984375,0.8404541015625,-90.4339599609375
2021-09-22 21:14:26.202252,-0.01806640625,-0.0068359375,0.98388671875,-0.5657958984375,0.845947265625,-90.4229736328125
2021-09-22 21:14:26.212166,-0.0185546875,-0.009765625,0.9833984375,-0.560302734375,0.8514404296875,-90.41748046875
2021-09-22 21:14:26.222272,-0.01953125,-0.0107421875,0.98876953125,-0.54931640625,0.8624267578125,-90.41748046875
2021-09-22 21:14:26.232138,-0.0185546875,-0.0107421875,0.9873046875,-0.5328369140625,0.8734130859375,-90.4119873046875
2021-09-22 21:14:26.242229,-0.01708984375,-0.0107421875,0.98876953125,-0.516357421875,0.87890625,-90.4119873046875
2021-09-22 21:14:26.252313,-0.01953125,-0.0087890625,0.98876953125,-0.4998779296875,0.8953857421875,-90.4119873046875
2021-09-22 21:14:26.262180,-0.01904296875,-0.01025390625,0.98681640625,-0.4888916015625,0.9063720703125,-90.41748046875
2021-09-22 21:14:26.272323,-0.01904296875,-0.0107421875,0.98876953125,-0.4833984375,0.9173583984375,-90.4229736328125
2021-09-22 21:14:26.282108,-0.0185546875,-0.0087890625,0.98974609375,-0.472412109375,0.9283447265625,-90.4339599609375
2021-09-22 21:14:26.291994,-0.01611328125,-0.0068359375,0.99560546875,-0.46142578125,0.9393310546875,-90.4449462890625
2021-09-22 21:14:26.302010,-0.0146484375,-0.0087890625,0.9990234375,-0.4559326171875,0.9503173828125,-90.4559326171875
2021-09-22 21:14:26.312042,-0.0166015625,-0.00830078125,1.0029296875,-0.4449462890625,0.9613037109375,-90.472412109375
2021-09-22 21:14:26.321930,-0.017578125,-0.01025390625,1.00048828125,-0.4339599609375,0.9722900390625,-90.494384765625
2021-09-22 21:14:26.331726,-0.01904296875,-0.01220703125,0.99951171875,-0.4339599609375,0.9832763671875,-90.5108642578125
2021-09-22 21:14:26.341714,-0.01953125,-0.0126953125,0.99609375,-0.4449462890625,0.98876953125,-90.5328369140625
2021-09-22 21:14:26.351874,-0.021484375,-0.00927734375,0.99560546875,-0.46142578125,0.999755859375,-90.5548095703125
2021-09-22 21:14:26.361715,-0.0224609375,-0.00439453125,0.9990234375,-0.4779052734375,1.0052490234375,-90.5712890625
2021-09-22 21:14:26.371731,-0.021484375,-0.00244140625,1.0,-0.4998779296875,1.0107421875,-90.59326171875
2021-09-22 21:14:26.381620,-0.01953125,0.0,0.99755859375,-0.5218505859375,1.0107421875,-90.615234375
2021-09-22 21:14:26.391303,-0.01806640625,-0.00146484375,0.9970703125,-0.538330078125,1.0162353515625,-90.6317138671875
2021-09-22 21:14:26.401578,-0.017578125,-0.00830078125,0.994140625,-0.5548095703125,1.0107421875,-90.648193359375
2021-09-22 21:14:26.411551,-0.01806640625,-0.0107421875,0.9912109375,-0.5657958984375,1.0107421875,-90.6591796875
2021-09-22 21:14:26.421484,-0.01806640625,-0.01123046875,0.9853515625,-0.5767822265625,1.0162353515625,-90.670166015625
2021-09-22 21:14:26.431604,-0.015625,-0.01318359375,0.98828125,-0.5877685546875,1.0107421875,-90.6756591796875
2021-09-22 21:14:26.441445,-0.01416015625,-0.01171875,0.99267578125,-0.582275390625,1.0107421875,-90.68115234375
2021-09-22 21:14:26.451658,-0.01220703125,-0.009765625,0.9921875,-0.5712890625,1.0052490234375,-90.6866455078125
2021-09-22 21:14:26.461559,-0.01708984375,-0.00830078125,0.99755859375,-0.54931640625,1.0052490234375,-90.6866455078125
2021-09-22 21:14:26.471501,-0.0224609375,-0.0087890625,0.998046875,-0.5218505859375,1.0107421875,-90.68115234375
2021-09-22 21:14:26.481390,-0.0244140625,-0.005859375,0.99658203125,-0.494384765625,1.0107421875,-90.6756591796875
2021-09-22 21:14:26.491287,-0.02392578125,-0.00537109375,0.994140625,-0.472412109375,1.0052490234375,-90.670166015625
2021-09-22 21:14:26.501233,-0.0234375,-0.00732421875,0.99658203125,-0.4559326171875,0.999755859375,-90.6536865234375
2021-09-22 21:14:26.511300,-0.0205078125,-0.00732421875,0.9970703125,-0.450439453125,0.98876953125,-90.6427001953125
2021-09-22 21:14:26.521227,-0.02001953125,-0.00537109375,0.9951171875,-0.450439453125,0.9722900390625,-90.6317138671875
2021-09-22 21:14:26.531205,-0.02001953125,-0.00537109375,0.99462890625,-0.450439453125,0.9503173828125,-90.615234375
2021-09-22 21:14:26.541158,-0.01953125,-0.005859375,0.99365234375,-0.4559326171875,0.9283447265625,-90.5987548828125
2021-09-22 21:14:26.551159,-0.02001953125,-0.0068359375,0.9921875,-0.4669189453125,0.90087890625,-90.582275390625
2021-09-22 21:14:26.561769,-0.01953125,-0.0087890625,0.99267578125,-0.4779052734375,0.8734130859375,-90.5657958984375
2021-09-22 21:14:26.570969,-0.02001953125,-0.01171875,0.9912109375,-0.4888916015625,0.845947265625,-90.54931640625
2021-09-22 21:14:26.580913,-0.01611328125,-0.01416015625,0.9921875,-0.4998779296875,0.81298828125,-90.538330078125
