time,acc_x,acc_y,acc_z,roll,pitch,yaw
2021-09-22 20:26:45.137653,0.00634765625,0.09814453125,0.97802734375,4.94384765625,1.9830322265625,7.020263671875
2021-09-22 20:26:45.149455,0.00634765625,0.0966796875,0.96923828125,4.9273681640625,1.878662109375,7.0367431640625
2021-09-22 20:26:45.159391,0.009765625,0.09375,0.9619140625,4.9163818359375,1.7633056640625,7.0477294921875
2021-09-22 20:26:45.169616,0.0078125,0.09375,0.95654296875,4.9163818359375,1.6534423828125,7.064208984375
2021-09-22 20:26:45.179811,0.0,0.09765625,0.9560546875,4.9273681640625,1.56005859375,7.0751953125
2021-09-22 20:26:45.189069,0.0009765625,0.09033203125,0.95166015625,4.932861328125,1.483154296875,7.0751953125
2021-09-22 20:26:45.199752,0.00146484375,0.0888671875,0.95263671875,4.9383544921875,1.4227294921875,7.0751953125
2021-09-22 20:26:45.209406,-0.0029296875,0.087890625,0.953125,4.932861328125,1.3897705078125,7.0697021484375
2021-09-22 20:26:45.219293,-0.001953125,0.0849609375,0.95068359375,4.910888671875,1.373291015625,7.064208984375
2021-09-22 20:26:45.229050,-0.01416015625,0.08447265625,0.9482421875,4.8834228515625,1.395263671875,7.042236328125
2021-09-22 20:26:45.239135,-0.0224609375,0.09130859375,0.95263671875,4.844970703125,1.439208984375,7.0147705078125
2021-09-22 20:26:45.249148,-0.02294921875,0.083984375,0.9560546875,4.8065185546875,1.4996337890625,6.9708251953125
2021-09-22 20:26:45.259033,-0.017578125,0.07958984375,0.9560546875,4.7625732421875,1.5545654296875,6.9268798828125
2021-09-22 20:26:45.268949,-0.0234375,0.0654296875,0.95458984375,4.713134765625,1.6094970703125,6.8939208984375
2021-09-22 20:26:45.279122,-0.0361328125,0.078125,0.96875,4.6746826171875,1.6534423828125,6.87744140625
2021-09-22 20:26:45.288958,-0.03369140625,0.083984375,0.9638671875,4.6417236328125,1.69189453125,6.87744140625
2021-09-22 20:26:45.298861,-0.0400390625,0.076171875,0.9716796875,4.6087646484375,1.7193603515625,6.8939208984375
2021-09-22 20:26:45.308724,-0.056640625,0.0908203125,0.97900390625,4.5867919921875,1.7523193359375,6.92138671875
2021-09-22 20:26:45.318923,-0.0634765625,0.09814453125,0.9892578125,4.5758056640625,1.790771484375,6.9488525390625
2021-09-22 20:26:45.328792,-0.0673828125,0.09814453125,0.9912109375,4.5703125,1.845703125,6.9708251953125
2021-09-22 20:26:45.338659,-0.0634765625,0.09716796875,0.99658203125,4.5648193359375,1.91162109375,6.976318359375
2021-09-22 20:26:45.348738,-0.05517578125,0.09423828125,0.99951171875,4.5648193359375,1.9775390625,6.976318359375
2021-09-22 20:26:45.358674,-0.05517578125,0.08984375,0.9990234375,4.5538330078125,2.0379638671875,6.96533203125
2021-09-22 20:26:45.368696,-0.05126953125,0.087890625,1.00048828125,4.537353515625,2.0928955078125,6.954345703125
2021-09-22 20:26:45.378525,-0.05419921875,0.0888671875,1.005859375,4.5098876953125,2.1368408203125,6.943359375
2021-09-22 20:26:45.388586,-0.05224609375,0.09130859375,1.009765625,4.4769287109375,2.1588134765625,6.9378662109375
2021-09-22 20:26:45.398522,-0.0439453125,0.09033203125,1.0126953125,4.4384765625,2.1697998046875,6.932373046875
2021-09-22 20:26:45.408488,-0.03466796875,0.08984375,1.0087890625,4.39453125,2.164306640625,6.932373046875
2021-09-22 20:26:45.418578,-0.033203125,0.09130859375,1.01025390625,4.3560791015625,2.1478271484375,6.943359375
2021-09-22 20:26:45.428445,-0.03076171875,0.0888671875,1.01513671875,4.306640625,2.1258544921875,6.9598388671875
2021-09-22 20:26:45.439063,-0.025390625,0.08251953125,1.0185546875,4.251708984375,2.0928955078125,6.9818115234375
2021-09-22 20:26:45.448234,-0.0166015625,0.080078125,1.01806640625,4.1802978515625,2.0489501953125,7.020263671875
2021-09-22 20:26:45.458315,-0.01318359375,0.07958984375,1.015625,4.1033935546875,2.0050048828125,7.0697021484375
2021-09-22 20:26:45.468354,-0.01220703125,0.08203125,1.01416015625,4.02099609375,1.966552734375,7.130126953125
2021-09-22 20:26:45.478269,-0.0126953125,0.083984375,1.01708984375,3.93310546875,1.9281005859375,7.1905517578125
2021-09-22 20:26:45.488203,-0.0126953125,0.07763671875,1.0146484375,3.834228515625,1.9061279296875,7.2509765625
2021-09-22 20:26:45.498231,-0.009765625,0.07421875,1.013671875,3.7298583984375,1.8896484375,7.305908203125
2021-09-22 20:26:45.508310,-0.0068359375,0.0712890625,1.0146484375,3.6199951171875,1.878662109375,7.36083984375
2021-09-22 20:26:45.518058,-0.00439453125,0.064453125,1.00830078125,3.504638671875,1.86767578125,7.415771484375
2021-09-22 20:26:45.528204,-0.0029296875,0.06005859375,1.0068359375,3.3782958984375,1.845703125,7.4761962890625
2021-09-22 20:26:45.538084,0.0,0.0556640625,1.00830078125,3.251953125,1.812744140625,7.53662109375
2021-09-22 20:26:45.547271,0.0,0.05029296875,1.00537109375,3.1201171875,1.7633056640625,7.6080322265625
2021-09-22 20:26:45.557296,-0.00439453125,0.046875,1.0068359375,2.9827880859375,1.7083740234375,7.6849365234375
2021-09-22 20:26:45.567993,-0.01123046875,0.0458984375,1.00634765625,2.845458984375,1.6424560546875,7.767333984375
2021-09-22 20:26:45.577926,-0.02685546875,0.0419921875,1.0107421875,2.7081298828125,1.5875244140625,7.8607177734375
2021-09-22 20:26:45.587867,-0.03466796875,0.03857421875,1.017578125,2.5653076171875,1.5325927734375,7.9595947265625
2021-09-22 20:26:45.597885,-0.03564453125,0.0341796875,1.03125,2.4334716796875,1.483154296875,8.0694580078125
2021-09-22 20:26:45.607910,-0.03173828125,0.03369140625,1.029296875,2.3016357421875,1.4447021484375,8.1903076171875
2021-09-22 20:26:45.617796,-0.02392578125,0.03564453125,1.0263671875,2.186279296875,1.4007568359375,8.316650390625
2021-09-22 20:26:45.627691,-0.01318359375,0.0390625,1.02685546875,2.076416015625,1.3623046875,8.4539794921875
2021-09-22 20:26:45.637669,-0.013671875,0.0419921875,1.01708984375,1.9830322265625,1.3238525390625,8.5968017578125
2021-09-22 20:26:45.647762,-0.015625,0.0390625,1.0107421875,1.900634765625,1.2908935546875,8.7286376953125
2021-09-22 20:26:45.657662,-0.01416015625,0.0361328125,1.00537109375,1.8292236328125,1.241455078125,8.8604736328125
2021-09-22 20:26:45.667581,-0.0185546875,0.0341796875,1.0078125,1.7742919921875,1.175537109375,8.9813232421875
2021-09-22 20:26:45.677644,-0.01611328125,0.03271484375,1.00830078125,1.73583984375,1.1041259765625,9.0911865234375
2021-09-22 20:26:45.687542,-0.01904296875,0.03369140625,1.013671875,1.7193603515625,1.021728515625,9.1900634765625
2021-09-22 20:26:45.697520,-0.02880859375,0.03955078125,1.0078125,1.7193603515625,0.94482421875,9.2724609375
2021-09-22 20:26:45.707478,-0.037109375,0.03857421875,1.01318359375,1.73583984375,0.8734130859375,9.33837890625
2021-09-22 20:26:45.717516,-0.02880859375,0.0283203125,1.01318359375,1.7578125,0.81298828125,9.3878173828125
2021-09-22 20:26:45.727392,-0.021484375,0.0224609375,1.0126953125,1.790771484375,0.7525634765625,9.437255859375
2021-09-22 20:26:45.737299,-0.01904296875,0.0244140625,1.0126953125,1.8402099609375,0.703125,9.4866943359375
2021-09-22 20:26:45.747311,-0.02001953125,0.025390625,1.0126953125,1.8951416015625,0.6646728515625,9.5416259765625
2021-09-22 20:26:45.757373,-0.01953125,0.02734375,1.01416015625,1.9610595703125,0.63720703125,9.5965576171875
2021-09-22 20:26:45.767274,-0.0185546875,0.029296875,1.00927734375,2.0379638671875,0.6097412109375,9.64599609375
2021-09-22 20:26:45.777169,-0.01708984375,0.03125,1.00244140625,2.120361328125,0.59326171875,9.700927734375
2021-09-22 20:26:45.787274,-0.00341796875,0.0322265625,0.99853515625,2.2137451171875,0.5657958984375,9.744873046875
2021-09-22 20:26:45.797245,0.001953125,0.03125,0.9951171875,2.3126220703125,0.52734375,9.788818359375
2021-09-22 20:26:45.807155,0.0,0.033203125,0.99951171875,2.4169921875,0.4888916015625,9.832763671875
2021-09-22 20:26:45.816405,0.00146484375,0.03076171875,1.0009765625,2.5213623046875,0.439453125,9.86572265625
2021-09-22 20:26:45.827136,0.0,0.02978515625,1.001953125,2.6312255859375,0.3900146484375,9.898681640625
2021-09-22 20:26:45.836343,-0.0078125,0.03076171875,1.00927734375,2.735595703125,0.3515625,9.931640625
2021-09-22 20:26:45.846982,-0.005859375,0.037109375,1.0146484375,2.83447265625,0.3131103515625,9.964599609375
2021-09-22 20:26:45.857065,-0.0068359375,0.03955078125,1.0107421875,2.933349609375,0.2911376953125,9.986572265625
2021-09-22 20:26:45.866989,-0.00341796875,0.04052734375,1.0107421875,3.0157470703125,0.274658203125,10.0030517578125
2021-09-22 20:26:45.876878,0.00146484375,0.03955078125,1.0146484375,3.087158203125,0.2581787109375,10.008544921875
2021-09-22 20:26:45.886946,0.00634765625,0.03759765625,1.00244140625,3.14208984375,0.2471923828125,10.0030517578125
2021-09-22 20:26:45.896943,0.015625,0.02978515625,1.00146484375,3.1805419921875,0.2252197265625,9.99755859375
2021-09-22 20:26:45.906845,0.0244140625,0.02880859375,0.99560546875,3.2025146484375,0.1812744140625,9.99755859375
2021-09-22 20:26:45.916718,0.02490234375,0.029296875,0.99755859375,3.2135009765625,0.1263427734375,10.0030517578125
2021-09-22 20:26:45.926689,0.02001953125,0.02978515625,0.99853515625,3.2080078125,0.0604248046875,10.0140380859375
2021-09-22 20:26:45.937284,0.009765625,0.037109375,1.0048828125,3.2080078125,0.0054931640625,10.030517578125
2021-09-22 20:26:45.946716,-0.00341796875,0.04296875,1.0087890625,3.2080078125,-0.0274658203125,10.0469970703125
2021-09-22 20:26:45.956272,0.00244140625,0.04052734375,1.01123046875,3.2080078125,-0.054931640625,10.0579833984375
2021-09-22 20:26:45.966567,0.0087890625,0.0419921875,1.01416015625,3.2135009765625,-0.06591796875,10.0689697265625
2021-09-22 20:26:45.976616,0.0166015625,0.0439453125,1.00927734375,3.218994140625,-0.0714111328125,10.0799560546875
2021-09-22 20:26:45.986503,0.02099609375,0.04443359375,1.00634765625,3.22998046875,-0.0714111328125,10.0909423828125
2021-09-22 20:26:45.996426,0.01806640625,0.046875,0.99853515625,3.240966796875,-0.0714111328125,10.1019287109375
2021-09-22 20:26:46.006364,0.01123046875,0.05126953125,0.99951171875,3.2574462890625,-0.06591796875,10.107421875
2021-09-22 20:26:46.016486,0.005859375,0.052734375,1.001953125,3.2684326171875,-0.0604248046875,10.107421875
2021-09-22 20:26:46.026382,0.0,0.05419921875,1.00634765625,3.2794189453125,-0.0494384765625,10.1019287109375
2021-09-22 20:26:46.035594,-0.001953125,0.05517578125,1.00732421875,3.2958984375,-0.0274658203125,10.0909423828125
2021-09-22 20:26:46.046421,-0.001953125,0.05224609375,0.99951171875,3.306884765625,-0.0054931640625,10.0799560546875
2021-09-22 20:26:46.056340,-0.005859375,0.0546875,0.99609375,3.3233642578125,0.0054931640625,10.0634765625
2021-09-22 20:26:46.066018,-0.0107421875,0.0576171875,1.00048828125,3.3343505859375,0.010986328125,10.0469970703125
2021-09-22 20:26:46.075814,-0.01416015625,0.06005859375,1.00927734375,3.3343505859375,0.0054931640625,10.030517578125
2021-09-22 20:26:46.085744,-0.01513671875,0.06640625,1.00634765625,3.3343505859375,0.0,10.01953125
2021-09-22 20:26:46.095794,-0.0166015625,0.0703125,1.00732421875,3.3233642578125,0.0,10.0030517578125
2021-09-22 20:26:46.105685,-0.01513671875,0.0732421875,1.00390625,3.3123779296875,0.0,9.986572265625
2021-09-22 20:26:46.115878,-0.02099609375,0.07763671875,1.005859375,3.2958984375,0.0164794921875,9.964599609375
2021-09-22 20:26:46.125808,-0.021484375,0.0751953125,1.00244140625,3.2904052734375,0.0439453125,9.9371337890625
2021-09-22 20:26:46.136011,-0.02392578125,0.0712890625,0.99853515625,3.284912109375,0.0714111328125,9.90966796875
2021-09-22 20:26:46.145926,-0.025390625,0.06787109375,0.998046875,3.284912109375,0.0933837890625,9.876708984375
2021-09-22 20:26:46.156081,-0.02197265625,0.06591796875,0.9931640625,3.2904052734375,0.10986328125,9.8492431640625
2021-09-22 20:26:46.166107,-0.025390625,0.06494140625,1.00341796875,3.2958984375,0.120849609375,9.8272705078125
2021-09-22 20:26:46.175918,-0.02783203125,0.0673828125,1.00537109375,3.306884765625,0.1373291015625,9.8162841796875
2021-09-22 20:26:46.185841,-0.0302734375,0.07177734375,1.005859375,3.3343505859375,0.15380859375,9.8052978515625
2021-09-22 20:26:46.195852,-0.0302734375,0.07763671875,1.009765625,3.3673095703125,0.17578125,9.7943115234375
2021-09-22 20:26:46.205792,-0.0263671875,0.0791015625,1.009765625,3.416748046875,0.2032470703125,9.77783203125
2021-09-22 20:26:46.215721,-0.02490234375,0.0751953125,1.00927734375,3.4771728515625,0.2362060546875,9.7613525390625
2021-09-22 20:26:46.225659,-0.01806640625,0.07470703125,1.001953125,3.5430908203125,0.2801513671875,9.7503662109375
2021-09-22 20:26:46.235691,-0.01904296875,0.07666015625,0.99169921875,3.62548828125,0.3350830078125,9.744873046875
2021-09-22 20:26:46.245640,-0.017578125,0.07275390625,0.990234375,3.71337890625,0.3955078125,9.744873046875
2021-09-22 20:26:46.255564,-0.0166015625,0.07421875,0.98583984375,3.8177490234375,0.46142578125,9.7503662109375
2021-09-22 20:26:46.265488,-0.01513671875,0.07666015625,0.9853515625,3.93310546875,0.5218505859375,9.766845703125
2021-09-22 20:26:46.275594,-0.01416015625,0.076171875,0.97900390625,4.0594482421875,0.5767822265625,9.7833251953125
2021-09-22 20:26:46.285499,-0.0146484375,0.07275390625,0.984375,4.19677734375,0.626220703125,9.7998046875
2021-09-22 20:26:46.295461,-0.01416015625,0.0751953125,0.984375,4.3341064453125,0.68115234375,9.82177734375
2021-09-22 20:26:46.305358,-0.01953125,0.07861328125,0.98974609375,4.4769287109375,0.7470703125,9.84375
2021-09-22 20:26:46.315221,-0.021484375,0.078125,0.99072265625,4.6197509765625,0.81298828125,9.8602294921875
2021-09-22 20:26:46.325393,-0.02392578125,0.0771484375,0.986328125,4.7515869140625,0.8953857421875,9.8712158203125
2021-09-22 20:26:46.335261,-0.02294921875,0.07763671875,0.98779296875,4.866943359375,0.977783203125,9.8712158203125
2021-09-22 20:26:46.345162,-0.021484375,0.07861328125,0.99365234375,4.9713134765625,1.0711669921875,9.8712158203125
2021-09-22 20:26:46.355286,-0.01953125,0.078125,0.98974609375,5.0592041015625,1.1700439453125,9.86572265625
2021-09-22 20:26:46.365171,-0.0205078125,0.07666015625,0.98388671875,5.130615234375,1.2744140625,9.8602294921875
2021-09-22 20:26:46.375164,-0.02001953125,0.0771484375,0.982421875,5.1910400390625,1.38427734375,9.8492431640625
2021-09-22 20:26:46.385089,-0.02197265625,0.07763671875,0.9814453125,5.2349853515625,1.494140625,9.84375
2021-09-22 20:26:46.395287,-0.02099609375,0.0751953125,0.98779296875,5.262451171875,1.593017578125,9.8382568359375
2021-09-22 20:26:46.405055,-0.0234375,0.07861328125,0.9873046875,5.284423828125,1.69189453125,9.832763671875
2021-09-22 20:26:46.415005,-0.021484375,0.0771484375,0.99365234375,5.284423828125,1.7742919921875,9.832763671875
2021-09-22 20:26:46.424974,-0.0244140625,0.0751953125,0.99169921875,5.2734375,1.8511962890625,9.832763671875
2021-09-22 20:26:46.435524,-0.03466796875,0.0751953125,0.99951171875,5.2459716796875,1.9281005859375,9.832763671875
2021-09-22 20:26:46.444861,-0.041015625,0.07421875,1.0078125,5.2020263671875,2.0050048828125,9.8272705078125
2021-09-22 20:26:46.454826,-0.04736328125,0.07568359375,1.01708984375,5.1470947265625,2.0819091796875,9.8162841796875
2021-09-22 20:26:46.464736,-0.0537109375,0.0791015625,1.0244140625,5.0811767578125,2.1697998046875,9.7998046875
2021-09-22 20:26:46.474976,-0.0595703125,0.0830078125,1.03466796875,5.009765625,2.252197265625,9.7723388671875
2021-09-22 20:26:46.484796,-0.05859375,0.0810546875,1.0361328125,4.921875,2.3236083984375,9.73388671875
2021-09-22 20:26:46.494678,-0.05810546875,0.07568359375,1.03759765625,4.8175048828125,2.384033203125,9.68994140625
2021-09-22 20:26:46.504825,-0.05810546875,0.07373046875,1.044921875,4.7076416015625,2.4169921875,9.64599609375
2021-09-22 20:26:46.514760,-0.056640625,0.07373046875,1.04296875,4.5867919921875,2.427978515625,9.60205078125
2021-09-22 20:26:46.524688,-0.05712890625,0.07421875,1.0458984375,4.4659423828125,2.427978515625,9.55810546875
2021-09-22 20:26:46.534579,-0.05615234375,0.078125,1.041015625,4.3450927734375,2.4114990234375,9.51416015625
2021-09-22 20:26:46.544620,-0.05517578125,0.07470703125,1.0390625,4.2242431640625,2.3895263671875,9.47021484375
2021-09-22 20:26:46.554525,-0.046875,0.072265625,1.0380859375,4.119873046875,2.3565673828125,9.4317626953125
2021-09-22 20:26:46.564478,-0.0419921875,0.072265625,1.0341796875,4.0264892578125,2.3236083984375,9.393310546875
2021-09-22 20:26:46.574493,-0.04150390625,0.07275390625,1.037109375,3.955078125,2.2906494140625,9.3603515625
2021-09-22 20:26:46.584507,-0.03271484375,0.0703125,1.03369140625,3.900146484375,2.2576904296875,9.3328857421875
2021-09-22 20:26:46.594373,-0.0302734375,0.07177734375,1.0361328125,3.8671875,2.2357177734375,9.305419921875
2021-09-22 20:26:46.604469,-0.0263671875,0.076171875,1.02783203125,3.8616943359375,2.2247314453125,9.283447265625
2021-09-22 20:26:46.614384,-0.0224609375,0.0751953125,1.025390625,3.878173828125,2.2247314453125,9.2559814453125
2021-09-22 20:26:46.624405,-0.02001953125,0.0732421875,1.0234375,3.9111328125,2.230224609375,9.2340087890625
2021-09-22 20:26:46.634271,-0.021484375,0.07568359375,1.01953125,3.966064453125,2.2412109375,9.20654296875
2021-09-22 20:26:46.644315,-0.02001953125,0.07275390625,1.01416015625,4.031982421875,2.252197265625,9.1790771484375
2021-09-22 20:26:46.654242,-0.0224609375,0.0693359375,1.01611328125,4.1143798828125,2.2467041015625,9.151611328125
2021-09-22 20:26:46.664165,-0.02587890625,0.07177734375,1.01513671875,4.2022705078125,2.2412109375,9.1241455078125
2021-09-22 20:26:46.674158,-0.02685546875,0.0693359375,1.01806640625,4.295654296875,2.2247314453125,9.0966796875
2021-09-22 20:26:46.684215,-0.02978515625,0.0703125,1.02099609375,4.383544921875,2.208251953125,9.0692138671875
2021-09-22 20:26:46.694067,-0.0361328125,0.0751953125,1.01806640625,4.471435546875,2.197265625,9.0362548828125
2021-09-22 20:26:46.703963,-0.03662109375,0.07275390625,1.021484375,4.5538330078125,2.197265625,8.997802734375
2021-09-22 20:26:46.714116,-0.03173828125,0.072265625,1.0185546875,4.6197509765625,2.197265625,8.9593505859375
2021-09-22 20:26:46.724140,-0.02880859375,0.07763671875,1.01806640625,4.669189453125,2.197265625,8.9208984375
2021-09-22 20:26:46.734017,-0.029296875,0.0791015625,1.0126953125,4.713134765625,2.197265625,8.8714599609375
2021-09-22 20:26:46.743887,-0.03076171875,0.08154296875,1.013671875,4.735107421875,2.197265625,8.8165283203125
2021-09-22 20:26:46.753783,-0.0283203125,0.08251953125,1.0078125,4.74609375,2.186279296875,8.7615966796875
2021-09-22 20:26:46.763826,-0.03076171875,0.08056640625,1.00634765625,4.7406005859375,2.1697998046875,8.701171875
2021-09-22 20:26:46.773890,-0.0322265625,0.07861328125,1.0029296875,4.7296142578125,2.142333984375,8.63525390625
2021-09-22 20:26:46.783764,-0.0400390625,0.0771484375,1.00634765625,4.7021484375,2.109375,8.5748291015625
2021-09-22 20:26:46.793788,-0.03857421875,0.07470703125,1.00830078125,4.6636962890625,2.076416015625,8.514404296875
2021-09-22 20:26:46.803670,-0.0400390625,0.076171875,1.0068359375,4.6142578125,2.04345703125,8.45947265625
2021-09-22 20:26:46.813601,-0.04052734375,0.07568359375,1.0009765625,4.5538330078125,2.0159912109375,8.4100341796875
2021-09-22 20:26:46.823657,-0.04443359375,0.07568359375,0.9990234375,4.4879150390625,1.99951171875,8.3660888671875
2021-09-22 20:26:46.833651,-0.04833984375,0.07861328125,1.00439453125,4.4110107421875,1.9940185546875,8.32763671875
2021-09-22 20:26:46.843543,-0.04296875,0.078125,1.001953125,4.32861328125,1.9940185546875,8.2891845703125
2021-09-22 20:26:46.853547,-0.04052734375,0.07763671875,0.99560546875,4.2462158203125,2.0050048828125,8.26171875
2021-09-22 20:26:46.863419,-0.0419921875,0.07958984375,0.99267578125,4.1583251953125,2.021484375,8.2342529296875
2021-09-22 20:26:46.873730,-0.041015625,0.08056640625,0.98779296875,4.075927734375,2.0379638671875,8.2122802734375
2021-09-22 20:26:46.883456,-0.044921875,0.0791015625,0.99072265625,3.9990234375,2.054443359375,8.19580078125
2021-09-22 20:26:46.893318,-0.04638671875,0.07421875,0.998046875,3.9276123046875,2.0654296875,8.184814453125
2021-09-22 20:26:46.903410,-0.046875,0.07275390625,0.998046875,3.8616943359375,2.0819091796875,8.1793212890625
2021-09-22 20:26:46.913301,-0.05029296875,0.072265625,0.998046875,3.8067626953125,2.098388671875,8.1793212890625
2021-09-22 20:26:46.923389,-0.04931640625,0.07177734375,0.99560546875,3.768310546875,2.1038818359375,8.1903076171875
2021-09-22 20:26:46.933899,-0.05224609375,0.07568359375,0.9970703125,3.746337890625,2.1148681640625,8.2012939453125
2021-09-22 20:26:46.943270,-0.0546875,0.0771484375,0.99658203125,3.7408447265625,2.1258544921875,8.2122802734375
2021-09-22 20:26:46.953255,-0.05126953125,0.07421875,0.9990234375,3.746337890625,2.1368408203125,8.2177734375
2021-09-22 20:26:46.963157,-0.0458984375,0.07666015625,1.0029296875,3.7628173828125,2.1478271484375,8.2232666015625
2021-09-22 20:26:46.973463,-0.04296875,0.0771484375,1.001953125,3.7847900390625,2.1588134765625,8.2342529296875
2021-09-22 20:26:46.983149,-0.0419921875,0.078125,1.0,3.8177490234375,2.17529296875,8.23974609375
2021-09-22 20:26:46.993058,-0.0458984375,0.080078125,0.9970703125,3.856201171875,2.1917724609375,8.2452392578125
2021-09-22 20:26:47.002928,-0.04443359375,0.07958984375,1.0,3.900146484375,2.2027587890625,8.2452392578125
2021-09-22 20:26:47.012847,-0.0361328125,0.0751953125,1.0009765625,3.9495849609375,2.2027587890625,8.2452392578125
2021-09-22 20:26:47.022997,-0.03369140625,0.07568359375,0.9951171875,3.9935302734375,2.197265625,8.2342529296875
2021-09-22 20:26:47.032898,-0.03369140625,0.07763671875,0.99853515625,4.0374755859375,2.186279296875,8.2232666015625
2021-09-22 20:26:47.042953,-0.037109375,0.078125,1.00341796875,4.075927734375,2.164306640625,8.206787109375
2021-09-22 20:26:47.052865,-0.03173828125,0.078125,1.009765625,4.1033935546875,2.1478271484375,8.1793212890625
2021-09-22 20:26:47.062821,-0.029296875,0.08056640625,1.01123046875,4.119873046875,2.1258544921875,8.15185546875
2021-09-22 20:26:47.072889,-0.02392578125,0.08154296875,1.00830078125,4.130859375,2.109375,8.1134033203125
2021-09-22 20:26:47.082843,-0.01904296875,0.07861328125,1.00439453125,4.1363525390625,2.08740234375,8.074951171875
2021-09-22 20:26:47.092746,-0.01513671875,0.07861328125,1.00732421875,4.1363525390625,2.0654296875,8.0364990234375
2021-09-22 20:26:47.102633,-0.01513671875,0.08251953125,1.00830078125,4.1473388671875,2.054443359375,7.998046875
2021-09-22 20:26:47.112726,-0.0224609375,0.080078125,1.00146484375,4.1583251953125,2.054443359375,7.9595947265625
2021-09-22 20:26:47.122769,-0.02001953125,0.07421875,1.001953125,4.163818359375,2.0654296875,7.921142578125
2021-09-22 20:26:47.132626,-0.017578125,0.07568359375,1.00244140625,4.1693115234375,2.0709228515625,7.88818359375
2021-09-22 20:26:47.142518,-0.02099609375,0.0771484375,1.00390625,4.1748046875,2.08740234375,7.8717041015625
2021-09-22 20:26:47.152546,-0.02294921875,0.07470703125,0.99951171875,4.1802978515625,2.098388671875,7.855224609375
2021-09-22 20:26:47.162466,-0.02783203125,0.07373046875,1.00244140625,4.185791015625,2.120361328125,7.8497314453125
2021-09-22 20:26:47.172534,-0.0322265625,0.08056640625,1.0078125,4.19677734375,2.1478271484375,7.8497314453125
2021-09-22 20:26:47.182418,-0.03125,0.078125,1.0068359375,4.207763671875,2.186279296875,7.8497314453125
2021-09-22 20:26:47.192451,-0.02685546875,0.07763671875,1.001953125,4.2242431640625,2.2247314453125,7.8497314453125
2021-09-22 20:26:47.202358,-0.025390625,0.0771484375,1.0,4.24072265625,2.2686767578125,7.84423828125
2021-09-22 20:26:47.212266,-0.025390625,0.076171875,1.0,4.2626953125,2.3126220703125,7.84423828125
2021-09-22 20:26:47.222400,-0.029296875,0.072265625,1.0029296875,4.2791748046875,2.3565673828125,7.8387451171875
2021-09-22 20:26:47.232288,-0.0341796875,0.07421875,1.00048828125,4.3011474609375,2.406005859375,7.833251953125
2021-09-22 20:26:47.242197,-0.0361328125,0.07373046875,0.9990234375,4.317626953125,2.4554443359375,7.8277587890625
2021-09-22 20:26:47.252133,-0.03515625,0.07421875,0.99658203125,4.339599609375,2.5103759765625,7.8167724609375
2021-09-22 20:26:47.262021,-0.03662109375,0.07568359375,0.9921875,4.3560791015625,2.57080078125,7.7947998046875
2021-09-22 20:26:47.272200,-0.0419921875,0.076171875,0.99267578125,4.3780517578125,2.647705078125,7.7728271484375
2021-09-22 20:26:47.282062,-0.04052734375,0.0732421875,0.99365234375,4.3890380859375,2.724609375,7.7398681640625
2021-09-22 20:26:47.291986,-0.041015625,0.0693359375,0.99853515625,4.39453125,2.8070068359375,7.7069091796875
2021-09-22 20:26:47.302183,-0.04296875,0.0703125,0.99560546875,4.3890380859375,2.889404296875,7.6739501953125
2021-09-22 20:26:47.312029,-0.0498046875,0.07080078125,0.9951171875,4.37255859375,2.9608154296875,7.6409912109375
2021-09-22 20:26:47.322021,-0.05517578125,0.0712890625,0.99755859375,4.3505859375,3.01025390625,7.6025390625
2021-09-22 20:26:47.331860,-0.0595703125,0.07421875,1.00048828125,4.317626953125,3.0487060546875,7.5640869140625
2021-09-22 20:26:47.341905,-0.068359375,0.07568359375,1.00341796875,4.2791748046875,3.0706787109375,7.5201416015625
2021-09-22 20:26:47.351849,-0.07275390625,0.07275390625,1.0087890625,4.2352294921875,3.087158203125,7.470703125
2021-09-22 20:26:47.361765,-0.07080078125,0.068359375,1.0185546875,4.1748046875,3.0926513671875,7.4212646484375
2021-09-22 20:26:47.372014,-0.07177734375,0.0703125,1.0234375,4.1033935546875,3.1036376953125,7.3773193359375
2021-09-22 20:26:47.381790,-0.07568359375,0.0703125,1.02685546875,4.0264892578125,3.131103515625,7.3388671875
2021-09-22 20:26:47.391683,-0.07275390625,0.07275390625,1.02294921875,3.9385986328125,3.1640625,7.305908203125
2021-09-22 20:26:47.401591,-0.07275390625,0.07666015625,1.0283203125,3.856201171875,3.2025146484375,7.2784423828125
2021-09-22 20:26:47.411718,-0.0693359375,0.080078125,1.0263671875,3.7738037109375,3.2464599609375,7.2509765625
2021-09-22 20:26:47.421734,-0.06103515625,0.07470703125,1.0234375,3.6968994140625,3.284912109375,7.2235107421875
2021-09-22 20:26:47.432245,-0.056640625,0.07275390625,1.021484375,3.62548828125,3.31787109375,7.2015380859375
2021-09-22 20:26:47.441470,-0.05615234375,0.07275390625,1.02490234375,3.5650634765625,3.3343505859375,7.18505859375
2021-09-22 20:26:47.451547,-0.0595703125,0.068359375,1.02099609375,3.5211181640625,3.3343505859375,7.174072265625
2021-09-22 20:26:47.461413,-0.06396484375,0.06494140625,1.02685546875,3.482666015625,3.3233642578125,7.174072265625
2021-09-22 20:26:47.471554,-0.06298828125,0.06591796875,1.0283203125,3.4552001953125,3.2904052734375,7.18505859375
2021-09-22 20:26:47.481337,-0.05908203125,0.0634765625,1.029296875,3.4442138671875,3.2464599609375,7.2015380859375
2021-09-22 20:26:47.491406,-0.0546875,0.06396484375,1.02490234375,3.4442138671875,3.197021484375,7.22900390625
2021-09-22 20:26:47.501292,-0.05126953125,0.0693359375,1.02099609375,3.460693359375,3.14208984375,7.261962890625
2021-09-22 20:26:47.511209,-0.04833984375,0.072265625,1.02197265625,3.49365234375,3.0926513671875,7.294921875
2021-09-22 20:26:47.521257,-0.0380859375,0.072265625,1.0146484375,3.53759765625,3.0377197265625,7.3223876953125
2021-09-22 20:26:47.531285,-0.03173828125,0.068359375,1.01416015625,3.592529296875,2.98828125,7.3443603515625
2021-09-22 20:26:47.541219,-0.02783203125,0.06787109375,1.013671875,3.6529541015625,2.933349609375,7.3663330078125
2021-09-22 20:26:47.551072,-0.0263671875,0.06689453125,1.01123046875,3.71337890625,2.8839111328125,7.3883056640625
2021-09-22 20:26:47.561196,-0.02734375,0.06884765625,1.0048828125,3.790283203125,2.83447265625,7.40478515625
2021-09-22 20:26:47.571203,-0.02490234375,0.07080078125,1.001953125,3.8726806640625,2.7850341796875,7.4212646484375
2021-09-22 20:26:47.581017,-0.0185546875,0.07080078125,0.99462890625,3.955078125,2.7301025390625,7.4267578125
2021-09-22 20:26:47.590950,-0.013671875,0.06982421875,0.99267578125,4.0484619140625,2.669677734375,7.4212646484375
2021-09-22 20:26:47.601006,-0.01171875,0.06884765625,0.99609375,4.1363525390625,2.5982666015625,7.4102783203125
2021-09-22 20:26:47.610927,-0.0126953125,0.06787109375,0.9892578125,4.229736328125,2.52685546875,7.3992919921875
2021-09-22 20:26:47.620898,-0.021484375,0.0703125,0.99072265625,4.3121337890625,2.4554443359375,7.3773193359375
2021-09-22 20:26:47.630983,-0.02490234375,0.07421875,0.99169921875,4.4000244140625,2.384033203125,7.349853515625
2021-09-22 20:26:47.640948,-0.02392578125,0.07421875,0.98828125,4.4769287109375,2.3126220703125,7.3114013671875
2021-09-22 20:26:47.650852,-0.02294921875,0.076171875,0.984375,4.559326171875,2.252197265625,7.2674560546875
2021-09-22 20:26:47.660669,-0.025390625,0.0791015625,0.98291015625,4.6417236328125,2.2027587890625,7.2125244140625
2021-09-22 20:26:47.670866,-0.02490234375,0.0810546875,0.986328125,4.72412109375,2.164306640625,7.152099609375
2021-09-22 20:26:47.680727,-0.02587890625,0.08154296875,0.98193359375,4.8065185546875,2.1478271484375,7.086181640625
2021-09-22 20:26:47.690658,-0.029296875,0.08349609375,0.9775390625,4.8944091796875,2.1478271484375,7.0147705078125
2021-09-22 20:26:47.700554,-0.03466796875,0.08447265625,0.978515625,4.9713134765625,2.1588134765625,6.943359375
2021-09-22 20:26:47.710609,-0.03662109375,0.08544921875,0.98486328125,5.0537109375,2.1807861328125,6.87744140625
2021-09-22 20:26:47.720701,-0.041015625,0.0888671875,0.984375,5.130615234375,2.208251953125,6.822509765625
2021-09-22 20:26:47.730527,-0.04931640625,0.09521484375,0.98095703125,5.2130126953125,2.2467041015625,6.7730712890625
2021-09-22 20:26:47.740405,-0.0546875,0.0966796875,0.97802734375,5.3009033203125,2.2906494140625,6.7291259765625
2021-09-22 20:26:47.750478,-0.06005859375,0.099609375,0.98193359375,5.38330078125,2.3291015625,6.6851806640625
2021-09-22 20:26:47.760455,-0.064453125,0.10107421875,0.98876953125,5.47119140625,2.362060546875,6.646728515625
2021-09-22 20:26:47.770332,-0.06884765625,0.1005859375,0.99560546875,5.548095703125,2.3785400390625,6.6082763671875
2021-09-22 20:26:47.780486,-0.0771484375,0.1005859375,1.00341796875,5.614013671875,2.3785400390625,6.5753173828125
2021-09-22 20:26:47.790379,-0.083984375,0.10302734375,1.0107421875,5.6689453125,2.373046875,6.5423583984375
2021-09-22 20:26:47.800246,-0.0859375,0.10009765625,1.01611328125,5.701904296875,2.3675537109375,6.5093994140625
2021-09-22 20:26:47.810188,-0.08056640625,0.0947265625,1.02099609375,5.723876953125,2.3565673828125,6.4874267578125
2021-09-22 20:26:47.820252,-0.07861328125,0.1025390625,1.01806640625,5.7403564453125,2.3675537109375,6.4654541015625
2021-09-22 20:26:47.830223,-0.07763671875,0.10888671875,1.00634765625,5.7513427734375,2.4005126953125,6.4434814453125
2021-09-22 20:26:47.840112,-0.07421875,0.109375,0.99462890625,5.767822265625,2.449951171875,6.4215087890625
2021-09-22 20:26:47.850175,-0.0634765625,0.1064453125,0.9951171875,5.7733154296875,2.515869140625,6.3995361328125
2021-09-22 20:26:47.860116,-0.05859375,0.10595703125,0.9892578125,5.7843017578125,2.581787109375,6.383056640625
2021-09-22 20:26:47.870202,-0.0576171875,0.10400390625,0.990234375,5.7952880859375,2.6531982421875,6.3665771484375
2021-09-22 20:26:47.880004,-0.0537109375,0.10400390625,0.98681640625,5.8172607421875,2.713623046875,6.3555908203125
2021-09-22 20:26:47.890114,-0.05859375,0.1064453125,0.9892578125,5.8502197265625,2.7630615234375,6.3555908203125
2021-09-22 20:26:47.900005,-0.0576171875,0.107421875,0.98486328125,5.888671875,2.801513671875,6.3555908203125
2021-09-22 20:26:47.909905,-0.05712890625,0.1064453125,0.9873046875,5.943603515625,2.83447265625,6.361083984375
2021-09-22 20:26:47.920033,-0.05810546875,0.10986328125,0.9892578125,6.0150146484375,2.8619384765625,6.3665771484375
2021-09-22 20:26:47.930463,-0.0625,0.10986328125,0.99072265625,6.08642578125,2.9058837890625,6.3720703125
2021-09-22 20:26:47.939811,-0.0595703125,0.103515625,0.99755859375,6.1578369140625,2.9498291015625,6.3775634765625
2021-09-22 20:26:47.949742,-0.05712890625,0.1015625,1.00439453125,6.21826171875,2.999267578125,6.383056640625
2021-09-22 20:26:47.959662,-0.05859375,0.1064453125,1.00439453125,6.2841796875,3.065185546875,6.39404296875
2021-09-22 20:26:47.969938,-0.06298828125,0.1083984375,1.00048828125,6.339111328125,3.1475830078125,6.405029296875
2021-09-22 20:26:47.979722,-0.06005859375,0.10888671875,1.001953125,6.3885498046875,3.2354736328125,6.4215087890625
2021-09-22 20:26:47.989636,-0.05615234375,0.111328125,0.9951171875,6.43798828125,3.328857421875,6.43798828125
2021-09-22 20:26:47.999543,-0.05078125,0.11083984375,1.0029296875,6.4874267578125,3.427734375,6.448974609375
2021-09-22 20:26:48.009597,-0.0498046875,0.10986328125,0.9970703125,6.5313720703125,3.526611328125,6.4599609375
2021-09-22 20:26:48.019720,-0.05078125,0.10888671875,1.0048828125,6.5643310546875,3.614501953125,6.470947265625
2021-09-22 20:26:48.029500,-0.05810546875,0.109375,1.00927734375,6.5972900390625,3.69140625,6.48193359375
2021-09-22 20:26:48.039539,-0.064453125,0.109375,1.01220703125,6.6192626953125,3.75732421875,6.492919921875
2021-09-22 20:26:48.049441,-0.06884765625,0.10693359375,1.0126953125,6.6302490234375,3.812255859375,6.50390625
2021-09-22 20:26:48.059372,-0.0703125,0.10888671875,1.01513671875,6.6357421875,3.856201171875,6.5093994140625
2021-09-22 20:26:48.069610,-0.0703125,0.10986328125,1.01904296875,6.6302490234375,3.88916015625,6.514892578125
2021-09-22 20:26:48.079462,-0.07568359375,0.1162109375,1.01904296875,6.624755859375,3.9276123046875,6.5093994140625
2021-09-22 20:26:48.089352,-0.07958984375,0.11865234375,1.02099609375,6.6192626953125,3.966064453125,6.4984130859375
2021-09-22 20:26:48.099305,-0.07763671875,0.115234375,1.02197265625,6.6082763671875,3.9990234375,6.4764404296875
2021-09-22 20:26:48.109336,-0.07080078125,0.115234375,1.0283203125,6.5972900390625,4.031982421875,6.4544677734375
2021-09-22 20:26:48.119431,-0.0703125,0.1201171875,1.021484375,6.591796875,4.06494140625,6.427001953125
2021-09-22 20:26:48.129231,-0.06787109375,0.119140625,1.01904296875,6.591796875,4.0869140625,6.3995361328125
2021-09-22 20:26:48.139066,-0.06103515625,0.12109375,1.01513671875,6.5972900390625,4.0924072265625,6.3720703125
2021-09-22 20:26:48.149224,-0.0576171875,0.12109375,1.0126953125,6.6082763671875,4.0924072265625,6.35009765625
2021-09-22 20:26:48.159073,-0.0498046875,0.1201171875,1.00927734375,6.6302490234375,4.075927734375,6.328125
2021-09-22 20:26:48.169220,-0.04736328125,0.1181640625,1.00244140625,6.65771484375,4.0594482421875,6.30615234375
2021-09-22 20:26:48.179132,-0.04638671875,0.1220703125,0.998046875,6.6961669921875,4.0374755859375,6.295166015625
2021-09-22 20:26:48.189036,-0.04638671875,0.1220703125,0.998046875,6.7291259765625,4.02099609375,6.2786865234375
2021-09-22 20:26:48.199015,-0.04931640625,0.1181640625,0.99267578125,6.7620849609375,4.010009765625,6.2677001953125
2021-09-22 20:26:48.208901,-0.046875,0.11572265625,0.99658203125,6.7950439453125,3.9990234375,6.26220703125
2021-09-22 20:26:48.219085,-0.04736328125,0.12060546875,0.9970703125,6.83349609375,3.9935302734375,6.2677001953125
2021-09-22 20:26:48.228927,-0.05078125,0.12109375,0.99267578125,6.866455078125,3.9990234375,6.2677001953125
2021-09-22 20:26:48.238816,-0.0517578125,0.11865234375,0.9912109375,6.8994140625,4.0155029296875,6.2677001953125
2021-09-22 20:26:48.248721,-0.04345703125,0.1181640625,0.98876953125,6.92138671875,4.0264892578125,6.273193359375
2021-09-22 20:26:48.258839,-0.04443359375,0.11767578125,0.98583984375,6.9378662109375,4.04296875,6.273193359375
2021-09-22 20:26:48.268890,-0.044921875,0.11865234375,0.98046875,6.954345703125,4.053955078125,6.273193359375
2021-09-22 20:26:48.278663,-0.0498046875,0.11669921875,0.98095703125,6.9598388671875,4.0594482421875,6.273193359375
2021-09-22 20:26:48.288567,-0.052734375,0.115234375,0.97998046875,6.9488525390625,4.06494140625,6.2677001953125
2021-09-22 20:26:48.298679,-0.05810546875,0.11669921875,0.9814453125,6.932373046875,4.0704345703125,6.251220703125
2021-09-22 20:26:48.308590,-0.06103515625,0.1162109375,0.98095703125,6.9049072265625,4.075927734375,6.2347412109375
2021-09-22 20:26:48.318774,-0.05908203125,0.1142578125,0.97216796875,6.8719482421875,4.0869140625,6.2127685546875
2021-09-22 20:26:48.328469,-0.05908203125,0.1123046875,0.970703125,6.822509765625,4.097900390625,6.185302734375
2021-09-22 20:26:48.338519,-0.06298828125,0.11328125,0.9794921875,6.767578125,4.1143798828125,6.1578369140625
2021-09-22 20:26:48.348460,-0.06591796875,0.115234375,0.98193359375,6.70166015625,4.141845703125,6.13037109375
2021-09-22 20:26:48.358402,-0.07275390625,0.11572265625,0.9873046875,6.6357421875,4.185791015625,6.1029052734375
2021-09-22 20:26:48.368654,-0.07958984375,0.1171875,0.99658203125,6.56982421875,4.251708984375,6.075439453125
2021-09-22 20:26:48.378465,-0.08544921875,0.12060546875,1.001953125,6.5093994140625,4.3341064453125,6.053466796875
2021-09-22 20:26:48.388311,-0.0888671875,0.11767578125,1.00439453125,6.448974609375,4.4329833984375,6.0205078125
2021-09-22 20:26:48.398257,-0.08837890625,0.11767578125,0.99951171875,6.405029296875,4.537353515625,5.987548828125
2021-09-22 20:26:48.408306,-0.08837890625,0.119140625,1.00048828125,6.361083984375,4.63623046875,5.9490966796875
2021-09-22 20:26:48.418457,-0.09326171875,0.119140625,0.9990234375,6.3336181640625,4.72412109375,5.91064453125
2021-09-22 20:26:48.428860,-0.099609375,0.115234375,0.99951171875,6.3116455078125,4.801025390625,5.86669921875
2021-09-22 20:26:48.438134,-0.10498046875,0.115234375,1.00927734375,6.295166015625,4.8724365234375,5.82275390625
2021-09-22 20:26:48.448254,-0.1142578125,0.119140625,1.0146484375,6.2896728515625,4.94384765625,5.77880859375
2021-09-22 20:26:48.458098,-0.12255859375,0.1171875,1.0234375,6.295166015625,5.020751953125,5.73486328125
2021-09-22 20:26:48.468241,-0.12255859375,0.11474609375,1.02685546875,6.3116455078125,5.1031494140625,5.6854248046875
2021-09-22 20:26:48.478158,-0.1201171875,0.115234375,1.03125,6.3446044921875,5.185546875,5.6414794921875
2021-09-22 20:26:48.488015,-0.115234375,0.11279296875,1.02587890625,6.383056640625,5.262451171875,5.60302734375
2021-09-22 20:26:48.497935,-0.11767578125,0.11328125,1.021484375,6.4434814453125,5.3448486328125,5.570068359375
2021-09-22 20:26:48.508020,-0.12109375,0.11328125,1.02294921875,6.514892578125,5.416259765625,5.537109375
2021-09-22 20:26:48.517976,-0.1259765625,0.1171875,1.02587890625,6.591796875,5.4931640625,5.5096435546875
2021-09-22 20:26:48.527921,-0.12548828125,0.11767578125,1.02197265625,6.6851806640625,5.5645751953125,5.482177734375
2021-09-22 20:26:48.537820,-0.12255859375,0.119140625,1.01806640625,6.78955078125,5.625,5.44921875
2021-09-22 20:26:48.547920,-0.11865234375,0.12353515625,1.01416015625,6.9049072265625,5.6689453125,5.416259765625
2021-09-22 20:26:48.557909,-0.1123046875,0.12451171875,1.01220703125,7.03125,5.6854248046875,5.3778076171875
2021-09-22 20:26:48.567716,-0.10595703125,0.12060546875,1.00732421875,7.1630859375,5.679931640625,5.3448486328125
2021-09-22 20:26:48.577868,-0.10205078125,0.12060546875,1.00634765625,7.3004150390625,5.64697265625,5.3173828125
2021-09-22 20:26:48.587711,-0.10107421875,0.11865234375,1.00341796875,7.4322509765625,5.60302734375,5.29541015625
2021-09-22 20:26:48.597676,-0.0986328125,0.1181640625,1.0029296875,7.55859375,5.548095703125,5.2899169921875
2021-09-22 20:26:48.607530,-0.10791015625,0.12353515625,1.00634765625,7.679443359375,5.504150390625,5.29541015625
2021-09-22 20:26:48.617609,-0.10888671875,0.12841796875,1.0029296875,7.789306640625,5.4766845703125,5.306396484375
2021-09-22 20:26:48.627637,-0.103515625,0.1328125,1.0029296875,7.88818359375,5.460205078125,5.3228759765625
2021-09-22 20:26:48.637498,-0.10107421875,0.13623046875,1.00341796875,7.965087890625,5.460205078125,5.33935546875
2021-09-22 20:26:48.647592,-0.0947265625,0.13525390625,0.9990234375,8.031005859375,5.4656982421875,5.361328125
2021-09-22 20:26:48.657561,-0.087890625,0.1337890625,0.99267578125,8.0694580078125,5.4656982421875,5.38330078125
2021-09-22 20:26:48.667555,-0.08349609375,0.1318359375,0.9951171875,8.096923828125,5.4547119140625,5.4107666015625
2021-09-22 20:26:48.677445,-0.08349609375,0.13427734375,0.99658203125,8.096923828125,5.42724609375,5.4437255859375
2021-09-22 20:26:48.687453,-0.08154296875,0.1357421875,1.0068359375,8.0859375,5.38330078125,5.47119140625
2021-09-22 20:26:48.697395,-0.08349609375,0.1357421875,1.00732421875,8.0584716796875,5.3338623046875,5.4986572265625
2021-09-22 20:26:48.707292,-0.08447265625,0.134765625,1.005859375,8.009033203125,5.2734375,5.5206298828125
2021-09-22 20:26:48.717177,-0.08447265625,0.134765625,1.005859375,7.9376220703125,5.20751953125,5.537109375
2021-09-22 20:26:48.727400,-0.0859375,0.1298828125,1.01318359375,7.84423828125,5.1361083984375,5.548095703125
2021-09-22 20:26:48.737266,-0.08984375,0.126953125,1.0146484375,7.7288818359375,5.064697265625,5.5535888671875
2021-09-22 20:26:48.747115,-0.08935546875,0.12255859375,1.02392578125,7.591552734375,4.98779296875,5.55908203125
2021-09-22 20:26:48.757251,-0.08642578125,0.11865234375,1.0263671875,7.437744140625,4.910888671875,5.570068359375
2021-09-22 20:26:48.767132,-0.0859375,0.1220703125,1.0234375,7.2674560546875,4.8394775390625,5.5810546875
2021-09-22 20:26:48.777162,-0.08935546875,0.1240234375,1.01953125,7.0916748046875,4.7735595703125,5.5865478515625
2021-09-22 20:26:48.787017,-0.0830078125,0.125,1.013671875,6.9158935546875,4.7021484375,5.5865478515625
2021-09-22 20:26:48.797082,-0.07373046875,0.12060546875,1.0087890625,6.7401123046875,4.625244140625,5.5810546875
2021-09-22 20:26:48.807043,-0.0654296875,0.1142578125,1.00390625,6.558837890625,4.5428466796875,5.5645751953125
2021-09-22 20:26:48.816870,-0.06591796875,0.1083984375,1.0078125,6.383056640625,4.449462890625,5.5535888671875
2021-09-22 20:26:48.827032,-0.07373046875,0.10498046875,1.01171875,6.207275390625,4.3505859375,5.5426025390625
2021-09-22 20:26:48.836952,-0.07958984375,0.10205078125,1.0166015625,6.04248046875,4.251708984375,5.537109375
2021-09-22 20:26:48.846818,-0.07666015625,0.09765625,1.00439453125,5.888671875,4.15283203125,5.5426025390625
2021-09-22 20:26:48.856749,-0.07666015625,0.09765625,1.0009765625,5.7513427734375,4.04296875,5.5535888671875
2021-09-22 20:26:48.866839,-0.0771484375,0.1005859375,1.00048828125,5.6304931640625,3.93310546875,5.5810546875
2021-09-22 20:26:48.876895,-0.0810546875,0.10009765625,1.00146484375,5.5206298828125,3.8232421875,5.6085205078125
2021-09-22 20:26:48.886741,-0.0751953125,0.0966796875,1.0029296875,5.42724609375,3.724365234375,5.64697265625
2021-09-22 20:26:48.896815,-0.0693359375,0.09228515625,0.998046875,5.33935546875,3.636474609375,5.69091796875
2021-09-22 20:26:48.906689,-0.06689453125,0.0869140625,0.9912109375,5.262451171875,3.5595703125,5.745849609375
2021-09-22 20:26:48.916605,-0.072265625,0.087890625,0.9931640625,5.2020263671875,3.4881591796875,5.811767578125
2021-09-22 20:26:48.927181,-0.0751953125,0.09033203125,0.9990234375,5.152587890625,3.4222412109375,5.8831787109375
2021-09-22 20:26:48.936691,-0.0771484375,0.091796875,1.00146484375,5.1141357421875,3.3673095703125,5.9600830078125
2021-09-22 20:26:48.946552,-0.0732421875,0.08984375,0.9970703125,5.086669921875,3.3233642578125,6.0260009765625
2021-09-22 20:26:48.956480,-0.0673828125,0.0849609375,0.994140625,5.0592041015625,3.27392578125,6.0919189453125
2021-09-22 20:26:48.966380,-0.0693359375,0.08642578125,1.0,5.0372314453125,3.2244873046875,6.1468505859375
2021-09-22 20:26:48.976513,-0.06787109375,0.08349609375,0.99609375,5.020751953125,3.175048828125,6.2017822265625
2021-09-22 20:26:48.986460,-0.06787109375,0.08203125,0.99462890625,4.998779296875,3.1201171875,6.251220703125
2021-09-22 20:26:48.996338,-0.064453125,0.08349609375,0.99853515625,4.976806640625,3.05419921875,6.3006591796875
2021-09-22 20:26:49.006455,-0.06396484375,0.087890625,0.99560546875,4.9603271484375,2.9937744140625,6.3555908203125
2021-09-22 20:26:49.016383,-0.06103515625,0.0888671875,0.9873046875,4.954833984375,2.9278564453125,6.405029296875
2021-09-22 20:26:49.026193,-0.05517578125,0.09130859375,0.98193359375,4.9603271484375,2.8619384765625,6.448974609375
2021-09-22 20:26:49.036238,-0.05126953125,0.0869140625,0.98046875,4.9658203125,2.79052734375,6.492919921875
2021-09-22 20:26:49.046232,-0.04443359375,0.08154296875,0.9814453125,4.976806640625,2.713623046875,6.536865234375
2021-09-22 20:26:49.056199,-0.04638671875,0.083984375,0.9814453125,4.98779296875,2.6422119140625,6.580810546875
2021-09-22 20:26:49.066103,-0.0498046875,0.08642578125,0.9931640625,4.998779296875,2.57080078125,6.624755859375
2021-09-22 20:26:49.076235,-0.0478515625,0.0859375,0.98779296875,4.998779296875,2.5048828125,6.6741943359375
2021-09-22 20:26:49.086121,-0.04541015625,0.083984375,0.99169921875,4.9932861328125,2.4444580078125,6.7181396484375
2021-09-22 20:26:49.096028,-0.0380859375,0.0869140625,0.986328125,4.976806640625,2.3895263671875,6.767578125
2021-09-22 20:26:49.105907,-0.03857421875,0.087890625,0.99072265625,4.9603271484375,2.3455810546875,6.8115234375
2021-09-22 20:26:49.116073,-0.0400390625,0.08837890625,0.9873046875,4.94384765625,2.30712890625,6.8499755859375
2021-09-22 20:26:49.125991,-0.03662109375,0.09130859375,0.99169921875,4.921875,2.274169921875,6.8829345703125
2021-09-22 20:26:49.135966,-0.0322265625,0.09228515625,0.9892578125,4.89990234375,2.2412109375,6.910400390625
2021-09-22 20:26:49.145998,-0.03271484375,0.08935546875,0.98681640625,4.8779296875,2.2137451171875,6.9378662109375
2021-09-22 20:26:49.155852,-0.02685546875,0.09033203125,0.98486328125,4.85595703125,2.186279296875,6.9598388671875
2021-09-22 20:26:49.165819,-0.0263671875,0.09033203125,0.98486328125,4.833984375,2.164306640625,6.9818115234375
2021-09-22 20:26:49.175886,-0.0224609375,0.0859375,0.9892578125,4.81201171875,2.1533203125,6.998291015625
2021-09-22 20:26:49.185939,-0.017578125,0.083984375,0.982421875,4.7955322265625,2.142333984375,7.0257568359375
2021-09-22 20:26:49.195800,-0.02197265625,0.08642578125,0.97998046875,4.779052734375,2.1368408203125,7.0477294921875
2021-09-22 20:26:49.205652,-0.0263671875,0.0830078125,0.984375,4.76806640625,2.1368408203125,7.0751953125
2021-09-22 20:26:49.215744,-0.03466796875,0.08154296875,0.98974609375,4.757080078125,2.1368408203125,7.09716796875
2021-09-22 20:26:49.225669,-0.04638671875,0.07958984375,0.99755859375,4.74609375,2.1478271484375,7.130126953125
2021-09-22 20:26:49.235591,-0.05126953125,0.0810546875,1.00634765625,4.7406005859375,2.164306640625,7.1575927734375
2021-09-22 20:26:49.245548,-0.05517578125,0.08154296875,1.0107421875,4.735107421875,2.186279296875,7.196044921875
2021-09-22 20:26:49.255612,-0.0576171875,0.0830078125,1.01611328125,4.7406005859375,2.21923828125,7.22900390625
2021-09-22 20:26:49.265583,-0.0537109375,0.0830078125,1.01953125,4.7515869140625,2.2576904296875,7.27294921875
2021-09-22 20:26:49.275435,-0.05322265625,0.0830078125,1.02099609375,4.76806640625,2.30712890625,7.3114013671875
2021-09-22 20:26:49.285339,-0.04638671875,0.0869140625,1.01025390625,4.801025390625,2.362060546875,7.3553466796875
2021-09-22 20:26:49.295495,-0.04345703125,0.09033203125,1.0009765625,4.844970703125,2.4169921875,7.393798828125
2021-09-22 20:26:49.305392,-0.04296875,0.087890625,1.001953125,4.89990234375,2.4554443359375,7.4267578125
2021-09-22 20:26:49.315322,-0.03662109375,0.08642578125,1.0078125,4.954833984375,2.4664306640625,7.459716796875
2021-09-22 20:26:49.325239,-0.0341796875,0.0810546875,1.005859375,5.020751953125,2.4609375,7.49267578125
2021-09-22 20:26:49.335325,-0.03369140625,0.078125,1.00830078125,5.0811767578125,2.43896484375,7.525634765625
2021-09-22 20:26:49.345312,-0.03369140625,0.080078125,1.01416015625,5.1361083984375,2.4169921875,7.5640869140625
2021-09-22 20:26:49.355260,-0.03955078125,0.0859375,1.01123046875,5.196533203125,2.406005859375,7.6025390625
2021-09-22 20:26:49.365101,-0.0390625,0.0849609375,1.01318359375,5.2459716796875,2.4005126953125,7.6300048828125
2021-09-22 20:26:49.375028,-0.029296875,0.0810546875,1.00048828125,5.284423828125,2.39501953125,7.6519775390625
2021-09-22 20:26:49.385075,-0.0263671875,0.0810546875,1.005859375,5.3118896484375,2.384033203125,7.66845703125
2021-09-22 20:26:49.395052,-0.021484375,0.08203125,1.00439453125,5.328369140625,2.3675537109375,7.679443359375
2021-09-22 20:26:49.405127,-0.02734375,0.080078125,1.00830078125,5.3338623046875,2.3565673828125,7.6849365234375
2021-09-22 20:26:49.415046,-0.02734375,0.08203125,1.00732421875,5.3338623046875,2.3455810546875,7.6904296875
2021-09-22 20:26:49.425690,-0.02294921875,0.07861328125,1.01123046875,5.3228759765625,2.3455810546875,7.6849365234375
2021-09-22 20:26:49.434871,-0.0234375,0.08203125,1.01171875,5.3009033203125,2.3455810546875,7.679443359375
2021-09-22 20:26:49.444949,-0.02880859375,0.08740234375,1.015625,5.284423828125,2.35107421875,7.6629638671875
2021-09-22 20:26:49.454954,-0.02783203125,0.0888671875,1.015625,5.262451171875,2.35107421875,7.6409912109375
2021-09-22 20:26:49.464819,-0.02783203125,0.08447265625,1.01611328125,5.2294921875,2.3345947265625,7.613525390625
2021-09-22 20:26:49.474781,-0.02587890625,0.08251953125,1.0185546875,5.1910400390625,2.30712890625,7.5860595703125
2021-09-22 20:26:49.484851,-0.02880859375,0.08056640625,1.01513671875,5.1470947265625,2.2686767578125,7.5640869140625
2021-09-22 20:26:49.494883,-0.03759765625,0.08154296875,1.021484375,5.0921630859375,2.230224609375,7.5421142578125
2021-09-22 20:26:49.505014,-0.04638671875,0.087890625,1.02880859375,5.03173828125,2.2027587890625,7.525634765625
2021-09-22 20:26:49.514586,-0.04833984375,0.08837890625,1.0263671875,4.9713134765625,2.1807861328125,7.503662109375
2021-09-22 20:26:49.524661,-0.04443359375,0.08837890625,1.02001953125,4.9053955078125,2.164306640625,7.481689453125
2021-09-22 20:26:49.534580,-0.0380859375,0.0888671875,1.02197265625,4.844970703125,2.142333984375,7.459716796875
2021-09-22 20:26:49.544607,-0.0341796875,0.087890625,1.02685546875,4.7845458984375,2.109375,7.4432373046875
2021-09-22 20:26:49.554619,-0.03955078125,0.0908203125,1.02685546875,4.7296142578125,2.0709228515625,7.4267578125
2021-09-22 20:26:49.564512,-0.04052734375,0.09375,1.02685546875,4.68017578125,2.0379638671875,7.415771484375
2021-09-22 20:26:49.574485,-0.03564453125,0.0908203125,1.0263671875,4.63623046875,2.010498046875,7.40478515625
2021-09-22 20:26:49.584434,-0.0322265625,0.08642578125,1.0244140625,4.5977783203125,1.9830322265625,7.3992919921875
2021-09-22 20:26:49.594613,-0.0283203125,0.087890625,1.02001953125,4.5703125,1.95556640625,7.3992919921875
2021-09-22 20:26:49.604388,-0.0302734375,0.087890625,1.01416015625,4.5538330078125,1.9281005859375,7.3992919921875
2021-09-22 20:26:49.614271,-0.0302734375,0.08544921875,1.01953125,4.5428466796875,1.8951416015625,7.40478515625
2021-09-22 20:26:49.624390,-0.03173828125,0.08837890625,1.02294921875,4.537353515625,1.856689453125,7.4102783203125
2021-09-22 20:26:49.634294,-0.029296875,0.08740234375,1.017578125,4.5318603515625,1.812744140625,7.4212646484375
2021-09-22 20:26:49.644166,-0.02392578125,0.08447265625,1.01025390625,4.537353515625,1.768798828125,7.4267578125
2021-09-22 20:26:49.654195,-0.021484375,0.0830078125,1.0087890625,4.537353515625,1.7138671875,7.4322509765625
2021-09-22 20:26:49.664246,-0.02294921875,0.08544921875,1.009765625,4.54833984375,1.658935546875,7.4432373046875
2021-09-22 20:26:49.674247,-0.0244140625,0.0849609375,1.0078125,4.5538330078125,1.614990234375,7.4542236328125
2021-09-22 20:26:49.684076,-0.02294921875,0.08349609375,1.005859375,4.559326171875,1.571044921875,7.459716796875
2021-09-22 20:26:49.694054,-0.01708984375,0.0830078125,0.99853515625,4.559326171875,1.527099609375,7.459716796875
2021-09-22 20:26:49.704208,-0.01513671875,0.08447265625,0.99365234375,4.559326171875,1.4886474609375,7.459716796875
2021-09-22 20:26:49.714111,-0.01220703125,0.0810546875,0.990234375,4.5538330078125,1.439208984375,7.4542236328125
2021-09-22 20:26:49.724027,-0.01318359375,0.08203125,0.9951171875,4.54833984375,1.38427734375,7.44873046875
2021-09-22 20:26:49.733904,-0.0146484375,0.0830078125,0.9970703125,4.5318603515625,1.3348388671875,7.4432373046875
2021-09-22 20:26:49.743932,-0.01611328125,0.08056640625,0.99560546875,4.515380859375,1.2908935546875,7.4432373046875
2021-09-22 20:26:49.753855,-0.01904296875,0.0810546875,0.99267578125,4.4879150390625,1.25244140625,7.437744140625
2021-09-22 20:26:49.763756,-0.02197265625,0.08203125,0.99560546875,4.4549560546875,1.219482421875,7.4322509765625
2021-09-22 20:26:49.773838,-0.02294921875,0.083984375,0.9931640625,4.4219970703125,1.2030029296875,7.4267578125
2021-09-22 20:26:49.783866,-0.0244140625,0.08251953125,0.9951171875,4.383544921875,1.1865234375,7.415771484375
2021-09-22 20:26:49.793725,-0.02587890625,0.08349609375,0.994140625,4.339599609375,1.175537109375,7.40478515625
2021-09-22 20:26:49.803715,-0.02294921875,0.08251953125,0.9990234375,4.2901611328125,1.1700439453125,7.3883056640625
2021-09-22 20:26:49.813799,-0.0224609375,0.08349609375,0.9970703125,4.24072265625,1.1590576171875,7.3663330078125
2021-09-22 20:26:49.823678,-0.02294921875,0.08447265625,0.98974609375,4.19677734375,1.1480712890625,7.3388671875
2021-09-22 20:26:49.833710,-0.0224609375,0.08154296875,0.98681640625,4.1583251953125,1.131591796875,7.3114013671875
2021-09-22 20:26:49.843508,-0.02197265625,0.08056640625,0.986328125,4.119873046875,1.1041259765625,7.283935546875
2021-09-22 20:26:49.853585,-0.02197265625,0.0810546875,0.9892578125,4.0924072265625,1.065673828125,7.2564697265625
2021-09-22 20:26:49.863526,-0.02685546875,0.080078125,0.994140625,4.06494140625,1.0272216796875,7.2344970703125
2021-09-22 20:26:49.873429,-0.0263671875,0.07763671875,1.00146484375,4.04296875,0.98876953125,7.218017578125
2021-09-22 20:26:49.883312,-0.02685546875,0.08056640625,1.0048828125,4.0264892578125,0.9613037109375,7.20703125
2021-09-22 20:26:49.893537,-0.0283203125,0.0849609375,1.0048828125,4.0155029296875,0.9503173828125,7.2015380859375
2021-09-22 20:26:49.903398,-0.025390625,0.08837890625,1.00439453125,4.010009765625,0.9613037109375,7.196044921875
2021-09-22 20:26:49.913238,-0.02099609375,0.09326171875,1.0029296875,4.02099609375,0.977783203125,7.18505859375
2021-09-22 20:26:49.923897,-0.01416015625,0.0908203125,0.9970703125,4.04296875,0.9942626953125,7.174072265625
2021-09-22 20:26:49.933360,-0.0078125,0.0888671875,0.98828125,4.075927734375,1.0052490234375,7.1575927734375
2021-09-22 20:26:49.943220,-0.0087890625,0.08154296875,0.9921875,4.1143798828125,1.0107421875,7.14111328125
2021-09-22 20:26:49.953242,-0.01171875,0.07958984375,0.9970703125,4.1583251953125,1.0052490234375,7.1356201171875
2021-09-22 20:26:49.963139,-0.02099609375,0.07958984375,1.0009765625,4.207763671875,1.0052490234375,7.130126953125
2021-09-22 20:26:49.973208,-0.02392578125,0.0810546875,1.00146484375,4.2572021484375,1.0052490234375,7.130126953125
2021-09-22 20:26:49.983193,-0.02490234375,0.080078125,1.00634765625,4.3011474609375,1.0107421875,7.130126953125
2021-09-22 20:26:49.993125,-0.0244140625,0.0830078125,1.0029296875,4.3505859375,1.0272216796875,7.130126953125
2021-09-22 20:26:50.003096,-0.02392578125,0.0859375,1.00927734375,4.4000244140625,1.043701171875,7.1246337890625
2021-09-22 20:26:50.013006,-0.0205078125,0.08984375,1.00732421875,4.449462890625,1.065673828125,7.1136474609375
2021-09-22 20:26:50.022904,-0.015625,0.08935546875,1.00048828125,4.50439453125,1.07666015625,7.09716796875
2021-09-22 20:26:50.032825,-0.0078125,0.0859375,0.99462890625,4.5538330078125,1.0711669921875,7.0806884765625
2021-09-22 20:26:50.042845,-0.0078125,0.08349609375,0.99658203125,4.603271484375,1.0546875,7.064208984375
2021-09-22 20:26:50.052953,-0.01123046875,0.0810546875,0.998046875,4.647216796875,1.021728515625,7.0587158203125
2021-09-22 20:26:50.062774,-0.01220703125,0.08056640625,1.00439453125,4.6856689453125,0.98876953125,7.05322265625
2021-09-22 20:26:50.072724,-0.015625,0.0859375,1.00537109375,4.7186279296875,0.966796875,7.064208984375
2021-09-22 20:26:50.082785,-0.02001953125,0.091796875,1.0087890625,4.757080078125,0.966796875,7.0697021484375
2021-09-22 20:26:50.092704,-0.01708984375,0.09130859375,1.0048828125,4.7845458984375,0.977783203125,7.0806884765625
2021-09-22 20:26:50.102805,-0.01220703125,0.09423828125,0.99755859375,4.8065185546875,0.98876953125,7.0916748046875
2021-09-22 20:26:50.112786,-0.00732421875,0.09326171875,1.00048828125,4.8284912109375,0.9942626953125,7.1026611328125
2021-09-22 20:26:50.122633,-0.00439453125,0.08984375,0.99169921875,4.8394775390625,0.98876953125,7.1136474609375
2021-09-22 20:26:50.132579,-0.0068359375,0.08837890625,0.99609375,4.844970703125,0.977783203125,7.1356201171875
2021-09-22 20:26:50.142465,-0.01171875,0.0888671875,0.994140625,4.8394775390625,0.9613037109375,7.1685791015625
2021-09-22 20:26:50.152383,-0.01953125,0.08837890625,0.99755859375,4.822998046875,0.955810546875,7.2015380859375
2021-09-22 20:26:50.162634,-0.0244140625,0.08740234375,1.0,4.7955322265625,0.9613037109375,7.239990234375
2021-09-22 20:26:50.172492,-0.02001953125,0.08740234375,1.0048828125,4.757080078125,0.9832763671875,7.2784423828125
2021-09-22 20:26:50.182380,-0.02001953125,0.087890625,1.0009765625,4.7076416015625,1.021728515625,7.31689453125
2021-09-22 20:26:50.192437,-0.0185546875,0.0859375,0.99853515625,4.6527099609375,1.0601806640625,7.3553466796875
2021-09-22 20:26:50.202386,-0.01806640625,0.08447265625,0.99609375,4.59228515625,1.0931396484375,7.393798828125
2021-09-22 20:26:50.212245,-0.02001953125,0.0810546875,0.99560546875,4.5208740234375,1.12060546875,7.437744140625
2021-09-22 20:26:50.222328,-0.02099609375,0.07958984375,0.99560546875,4.4439697265625,1.142578125,7.481689453125
2021-09-22 20:26:50.232179,-0.0244140625,0.07666015625,0.99365234375,4.3670654296875,1.1480712890625,7.525634765625
2021-09-22 20:26:50.242234,-0.02978515625,0.0751953125,1.001953125,4.28466796875,1.153564453125,7.569580078125
2021-09-22 20:26:50.252145,-0.0341796875,0.07763671875,1.0068359375,4.2022705078125,1.16455078125,7.613525390625
2021-09-22 20:26:50.262073,-0.0380859375,0.078125,1.01171875,4.1143798828125,1.1810302734375,7.657470703125
2021-09-22 20:26:50.272241,-0.03662109375,0.0732421875,1.009765625,4.031982421875,1.197509765625,7.701416015625
2021-09-22 20:26:50.282193,-0.02734375,0.06982421875,1.0087890625,3.944091796875,1.219482421875,7.7398681640625
2021-09-22 20:26:50.292047,-0.0283203125,0.06787109375,1.0068359375,3.8616943359375,1.241455078125,7.7838134765625
2021-09-22 20:26:50.302084,-0.02734375,0.0654296875,1.001953125,3.779296875,1.2579345703125,7.822265625
2021-09-22 20:26:50.312048,-0.0244140625,0.064453125,1.00341796875,3.702392578125,1.2744140625,7.8717041015625
2021-09-22 20:26:50.321928,-0.02099609375,0.06298828125,1.00048828125,3.636474609375,1.285400390625,7.9156494140625
2021-09-22 20:26:50.331835,-0.01953125,0.060546875,1.0029296875,3.58154296875,1.2908935546875,7.9541015625
2021-09-22 20:26:50.342008,-0.02001953125,0.05908203125,1.00390625,3.53759765625,1.29638671875,7.998046875
2021-09-22 20:26:50.351940,-0.02197265625,0.05517578125,1.00537109375,3.4991455078125,1.3018798828125,8.0364990234375
2021-09-22 20:26:50.361843,-0.02001953125,0.0517578125,1.01416015625,3.4716796875,1.3018798828125,8.0804443359375
2021-09-22 20:26:50.371685,-0.01806640625,0.05029296875,1.01318359375,3.4442138671875,1.3128662109375,8.1298828125
2021-09-22 20:26:50.381873,-0.02099609375,0.04931640625,1.0087890625,3.427734375,1.3238525390625,8.184814453125
2021-09-22 20:26:50.391793,-0.02197265625,0.05224609375,1.009765625,3.416748046875,1.34033203125,8.2342529296875
2021-09-22 20:26:50.401622,-0.01806640625,0.0537109375,1.009765625,3.4112548828125,1.351318359375,8.2781982421875
2021-09-22 20:26:50.411629,-0.01611328125,0.0546875,1.00927734375,3.416748046875,1.3623046875,8.3221435546875
2021-09-22 20:26:50.422179,-0.0126953125,0.052734375,1.00390625,3.4222412109375,1.3787841796875,8.3551025390625
2021-09-22 20:26:50.431587,-0.0087890625,0.05078125,1.00341796875,3.4332275390625,1.38427734375,8.382568359375
2021-09-22 20:26:50.441465,-0.00732421875,0.048828125,1.0078125,3.4442138671875,1.3897705078125,8.4100341796875
2021-09-22 20:26:50.451382,-0.0068359375,0.0458984375,1.00927734375,3.44970703125,1.395263671875,8.4375
2021-09-22 20:26:50.461605,-0.0087890625,0.04638671875,1.00732421875,3.460693359375,1.3897705078125,8.4649658203125
2021-09-22 20:26:50.471490,-0.0146484375,0.046875,1.013671875,3.4661865234375,1.3897705078125,8.4979248046875
2021-09-22 20:26:50.481366,-0.01513671875,0.0478515625,1.009765625,3.4716796875,1.3897705078125,8.5308837890625
2021-09-22 20:26:50.491318,-0.01708984375,0.05126953125,1.01318359375,3.4771728515625,1.3897705078125,8.558349609375
2021-09-22 20:26:50.501397,-0.02001953125,0.0537109375,1.01220703125,3.482666015625,1.4007568359375,8.580322265625
2021-09-22 20:26:50.511290,-0.013671875,0.04638671875,1.01123046875,3.4771728515625,1.4117431640625,8.5968017578125
2021-09-22 20:26:50.521332,-0.009765625,0.04736328125,1.01025390625,3.4661865234375,1.4227294921875,8.6077880859375
2021-09-22 20:26:50.531315,-0.01220703125,0.046875,1.0107421875,3.44970703125,1.4227294921875,8.6187744140625
2021-09-22 20:26:50.541243,-0.0185546875,0.04150390625,1.01025390625,3.427734375,1.417236328125,8.6297607421875
2021-09-22 20:26:50.551134,-0.02587890625,0.04052734375,1.02197265625,3.394775390625,1.4007568359375,8.6407470703125
2021-09-22 20:26:50.561062,-0.02734375,0.04541015625,1.01953125,3.3563232421875,1.38427734375,8.646240234375
2021-09-22 20:26:50.571227,-0.02490234375,0.04296875,1.01513671875,3.306884765625,1.3623046875,8.646240234375
2021-09-22 20:26:50.581138,-0.02490234375,0.044921875,1.01416015625,3.262939453125,1.3348388671875,8.6407470703125
2021-09-22 20:26:50.591027,-0.017578125,0.04638671875,1.0126953125,3.2135009765625,1.29638671875,8.624267578125
2021-09-22 20:26:50.601051,-0.01806640625,0.04052734375,1.009765625,3.1640625,1.2579345703125,8.602294921875
2021-09-22 20:26:50.611026,-0.01611328125,0.0400390625,1.00830078125,3.1146240234375,1.2139892578125,8.5748291015625
2021-09-22 20:26:50.621007,-0.0234375,0.0419921875,1.01171875,3.065185546875,1.16455078125,8.5528564453125
2021-09-22 20:26:50.630922,-0.03125,0.03955078125,1.021484375,3.01025390625,1.1151123046875,8.5308837890625
2021-09-22 20:26:50.640996,-0.0302734375,0.041015625,1.02685546875,2.955322265625,1.07666015625,8.514404296875
2021-09-22 20:26:50.650855,-0.029296875,0.044921875,1.01611328125,2.911376953125,1.043701171875,8.50341796875
2021-09-22 20:26:50.660785,-0.02587890625,0.0478515625,1.017578125,2.867431640625,1.021728515625,8.492431640625
2021-09-22 20:26:50.670714,-0.01953125,0.05224609375,1.01123046875,2.83447265625,0.999755859375,8.4759521484375
2021-09-22 20:26:50.680742,-0.0087890625,0.052734375,1.0029296875,2.8125,0.977783203125,8.45947265625
2021-09-22 20:26:50.690776,-0.00634765625,0.04638671875,1.0009765625,2.7960205078125,0.9503173828125,8.4375
2021-09-22 20:26:50.700639,-0.0078125,0.04736328125,1.00146484375,2.79052734375,0.9173583984375,8.4210205078125
2021-09-22 20:26:50.710729,-0.0146484375,0.044921875,1.01025390625,2.7960205078125,0.8843994140625,8.404541015625
2021-09-22 20:26:50.720684,-0.0205078125,0.0439453125,1.0078125,2.801513671875,0.867919921875,8.3990478515625
2021-09-22 20:26:50.730612,-0.02099609375,0.0419921875,1.01025390625,2.8179931640625,0.85693359375,8.3935546875
2021-09-22 20:26:50.740487,-0.0185546875,0.04248046875,1.00390625,2.8399658203125,0.85693359375,8.3935546875
2021-09-22 20:26:50.750632,-0.02099609375,0.048828125,1.00537109375,2.87841796875,0.85693359375,8.3935546875
2021-09-22 20:26:50.760512,-0.01953125,0.0458984375,0.9990234375,2.9278564453125,0.8624267578125,8.3935546875
2021-09-22 20:26:50.770241,-0.01806640625,0.044921875,1.0048828125,2.977294921875,0.8624267578125,8.3935546875
2021-09-22 20:26:50.780357,-0.01416015625,0.0439453125,1.0048828125,3.0267333984375,0.85693359375,8.3880615234375
2021-09-22 20:26:50.790439,-0.01513671875,0.04052734375,0.99951171875,3.0706787109375,0.8514404296875,8.3770751953125
2021-09-22 20:26:50.800443,-0.01611328125,0.03857421875,1.00390625,3.109130859375,0.8349609375,8.37158203125
2021-09-22 20:26:50.810349,-0.01953125,0.04345703125,1.0087890625,3.1475830078125,0.81298828125,8.360595703125
2021-09-22 20:26:50.820238,-0.02734375,0.04931640625,1.00927734375,3.1805419921875,0.7965087890625,8.338623046875
2021-09-22 20:26:50.830310,-0.02734375,0.04638671875,1.0048828125,3.2080078125,0.7745361328125,8.3111572265625
2021-09-22 20:26:50.840288,-0.01904296875,0.04443359375,1.001953125,3.2354736328125,0.7525634765625,8.272705078125
2021-09-22 20:26:50.850220,-0.01611328125,0.04541015625,1.00048828125,3.251953125,0.7305908203125,8.2232666015625
2021-09-22 20:26:50.860151,-0.017578125,0.04638671875,1.0029296875,3.262939453125,0.703125,8.1683349609375
2021-09-22 20:26:50.870167,-0.0166015625,0.04345703125,1.0048828125,3.262939453125,0.68115234375,8.1134033203125
2021-09-22 20:26:50.880101,-0.015625,0.04736328125,1.009765625,3.2574462890625,0.6591796875,8.052978515625
2021-09-22 20:26:50.890009,-0.0126953125,0.05078125,1.00634765625,3.2464599609375,0.6427001953125,7.9925537109375
2021-09-22 20:26:50.899941,-0.0107421875,0.05322265625,1.00390625,3.2354736328125,0.6207275390625,7.93212890625
2021-09-22 20:26:50.910200,-0.0068359375,0.0537109375,1.00830078125,3.218994140625,0.604248046875,7.8717041015625
2021-09-22 20:26:50.920655,-0.005859375,0.0576171875,1.00341796875,3.2135009765625,0.582275390625,7.8057861328125
2021-09-22 20:26:50.929912,-0.00341796875,0.0576171875,1.00048828125,3.2080078125,0.5657958984375,7.7398681640625
2021-09-22 20:26:50.939831,-0.00244140625,0.0537109375,0.99267578125,3.2135009765625,0.5438232421875,7.66845703125
2021-09-22 20:26:50.949947,0.0009765625,0.0517578125,0.994140625,3.218994140625,0.516357421875,7.6080322265625
2021-09-22 20:26:50.959876,-0.00244140625,0.05322265625,0.99462890625,3.2244873046875,0.4888916015625,7.5531005859375
2021-09-22 20:26:50.969771,-0.005859375,0.05126953125,0.99853515625,3.2354736328125,0.4669189453125,7.503662109375
2021-09-22 20:26:50.979636,-0.0048828125,0.0537109375,1.00537109375,3.2464599609375,0.450439453125,7.459716796875
2021-09-22 20:26:50.989809,-0.00732421875,0.0576171875,1.0068359375,3.2574462890625,0.450439453125,7.415771484375
2021-09-22 20:26:50.999692,-0.0078125,0.060546875,1.0087890625,3.2794189453125,0.46142578125,7.3773193359375
2021-09-22 20:26:51.009577,-0.00634765625,0.0615234375,1.00146484375,3.3013916015625,0.4833984375,7.3388671875
2021-09-22 20:26:51.019844,-0.00341796875,0.06005859375,0.998046875,3.3343505859375,0.50537109375,7.294921875
2021-09-22 20:26:51.029647,0.0009765625,0.05908203125,0.99658203125,3.36181640625,0.5218505859375,7.2509765625
2021-09-22 20:26:51.039542,-0.00732421875,0.0576171875,0.99951171875,3.3892822265625,0.5328369140625,7.20703125
2021-09-22 20:26:51.049466,-0.01416015625,0.0546875,1.013671875,3.4112548828125,0.5438232421875,7.1685791015625
2021-09-22 20:26:51.059398,-0.02001953125,0.05810546875,1.01611328125,3.427734375,0.5548095703125,7.130126953125
2021-09-22 20:26:51.069462,-0.02099609375,0.0625,1.01611328125,3.4442138671875,0.5657958984375,7.0916748046875
2021-09-22 20:26:51.079413,-0.0185546875,0.0615234375,1.0185546875,3.4552001953125,0.5767822265625,7.042236328125
2021-09-22 20:26:51.089319,-0.01806640625,0.06298828125,1.01611328125,3.4661865234375,0.582275390625,6.9873046875
2021-09-22 20:26:51.099430,-0.01416015625,0.0654296875,1.02001953125,3.4716796875,0.5767822265625,6.92138671875
2021-09-22 20:26:51.109336,-0.00634765625,0.06298828125,1.01806640625,3.4661865234375,0.5548095703125,6.844482421875
2021-09-22 20:26:51.119214,-0.00390625,0.060546875,1.0185546875,3.4442138671875,0.516357421875,6.767578125
2021-09-22 20:26:51.129268,-0.0029296875,0.05615234375,1.0234375,3.4112548828125,0.46142578125,6.690673828125
2021-09-22 20:26:51.139299,-0.0078125,0.0556640625,1.0205078125,3.36181640625,0.3955078125,6.6082763671875
2021-09-22 20:26:51.149235,-0.013671875,0.05810546875,1.02197265625,3.3123779296875,0.32958984375,6.5313720703125
2021-09-22 20:26:51.159130,-0.017578125,0.06103515625,1.0244140625,3.2574462890625,0.252685546875,6.448974609375
2021-09-22 20:26:51.169020,-0.015625,0.06103515625,1.029296875,3.197021484375,0.17578125,6.3665771484375
2021-09-22 20:26:51.179131,-0.0029296875,0.06103515625,1.021484375,3.14208984375,0.098876953125,6.2841796875
2021-09-22 20:26:51.189093,0.00732421875,0.05859375,1.00732421875,3.0816650390625,0.02197265625,6.2017822265625
2021-09-22 20:26:51.199002,0.00634765625,0.060546875,1.0,3.0267333984375,-0.0439453125,6.1358642578125
2021-09-22 20:26:51.209092,0.0087890625,0.05908203125,1.00732421875,2.977294921875,-0.1153564453125,6.0809326171875
2021-09-22 20:26:51.218966,0.013671875,0.0595703125,1.00048828125,2.933349609375,-0.1702880859375,6.0369873046875
2021-09-22 20:26:51.228852,0.0078125,0.060546875,1.00732421875,2.8948974609375,-0.2142333984375,6.009521484375
2021-09-22 20:26:51.238940,0.00390625,0.06103515625,1.00732421875,2.867431640625,-0.2362060546875,5.987548828125
2021-09-22 20:26:51.248954,0.00634765625,0.0625,1.0068359375,2.8509521484375,-0.24169921875,5.9765625
2021-09-22 20:26:51.258890,0.00537109375,0.06494140625,1.00439453125,2.845458984375,-0.230712890625,5.9765625
2021-09-22 20:26:51.268798,-0.00048828125,0.06201171875,1.00146484375,2.8509521484375,-0.2142333984375,5.9820556640625
2021-09-22 20:26:51.278886,-0.00634765625,0.05810546875,1.0068359375,2.8619384765625,-0.1922607421875,5.99853515625
2021-09-22 20:26:51.288839,-0.00439453125,0.056640625,1.0146484375,2.87841796875,-0.17578125,6.031494140625
2021-09-22 20:26:51.298812,-0.0078125,0.05712890625,1.01513671875,2.9058837890625,-0.1593017578125,6.075439453125
2021-09-22 20:26:51.308631,-0.01318359375,0.06396484375,1.02099609375,2.9388427734375,-0.142822265625,6.13037109375
2021-09-22 20:26:51.318544,-0.0205078125,0.07177734375,1.0126953125,2.9937744140625,-0.1153564453125,6.1907958984375
2021-09-22 20:26:51.328656,-0.021484375,0.0771484375,1.00634765625,3.0596923828125,-0.0823974609375,6.251220703125
2021-09-22 20:26:51.338525,-0.01611328125,0.07568359375,1.001953125,3.14208984375,-0.054931640625,6.30615234375
2021-09-22 20:26:51.348614,-0.0146484375,0.07373046875,0.99951171875,3.2354736328125,-0.0274658203125,6.3555908203125
2021-09-22 20:26:51.358621,-0.01220703125,0.07373046875,1.0078125,3.3343505859375,-0.0054931640625,6.405029296875
2021-09-22 20:26:51.368489,-0.00732421875,0.07177734375,1.001953125,3.4332275390625,0.0054931640625,6.448974609375
2021-09-22 20:26:51.378050,-0.00341796875,0.07080078125,0.9990234375,3.53759765625,0.0274658203125,6.492919921875
2021-09-22 20:26:51.388001,-0.00390625,0.072265625,0.99365234375,3.636474609375,0.054931640625,6.536865234375
2021-09-22 20:26:51.398306,-0.00537109375,0.07373046875,0.99658203125,3.7353515625,0.0823974609375,6.580810546875
2021-09-22 20:26:51.408391,0.00146484375,0.07275390625,0.98779296875,3.8287353515625,0.10986328125,6.6302490234375
2021-09-22 20:26:51.419006,0.00537109375,0.07470703125,0.98583984375,3.9166259765625,0.1318359375,6.668701171875
2021-09-22 20:26:51.428268,0.0078125,0.07421875,0.9853515625,3.9935302734375,0.1373291015625,6.7071533203125
2021-09-22 20:26:51.438117,0.00732421875,0.07177734375,0.9853515625,4.0594482421875,0.1373291015625,6.7401123046875
2021-09-22 20:26:51.448195,0.005859375,0.07080078125,0.9833984375,4.10888671875,0.1263427734375,6.7730712890625
2021-09-22 20:26:51.458248,0.0009765625,0.06982421875,0.98486328125,4.1363525390625,0.120849609375,6.8060302734375
2021-09-22 20:26:51.468108,0.0009765625,0.0673828125,0.98388671875,4.1473388671875,0.120849609375,6.8280029296875
2021-09-22 20:26:51.478023,0.0029296875,0.0673828125,0.98876953125,4.141845703125,0.120849609375,6.85546875
2021-09-22 20:26:51.488061,0.00439453125,0.0703125,0.99169921875,4.119873046875,0.1318359375,6.87744140625
2021-09-22 20:26:51.497988,0.00732421875,0.0712890625,0.98828125,4.075927734375,0.15380859375,6.8939208984375
2021-09-22 20:26:51.507938,0.0087890625,0.06982421875,0.982421875,4.02099609375,0.1812744140625,6.9049072265625
2021-09-22 20:26:51.518060,0.01123046875,0.0693359375,0.9873046875,3.955078125,0.208740234375,6.9049072265625
2021-09-22 20:26:51.527955,0.00537109375,0.068359375,0.98876953125,3.878173828125,0.230712890625,6.910400390625
2021-09-22 20:26:51.537903,0.00537109375,0.0654296875,0.99462890625,3.790283203125,0.252685546875,6.9049072265625
2021-09-22 20:26:51.547731,0.00341796875,0.064453125,0.9970703125,3.6968994140625,0.2691650390625,6.8994140625
2021-09-22 20:26:51.557816,0.00146484375,0.06201171875,0.99560546875,3.603515625,0.2801513671875,6.8939208984375
2021-09-22 20:26:51.567918,0.0009765625,0.05859375,0.99462890625,3.515625,0.296630859375,6.8939208984375
2021-09-22 20:26:51.577749,-0.00439453125,0.05810546875,0.99658203125,3.427734375,0.3131103515625,6.888427734375
2021-09-22 20:26:51.587606,-0.00634765625,0.05859375,0.9990234375,3.350830078125,0.3350830078125,6.8829345703125
2021-09-22 20:26:51.597729,-0.00634765625,0.05517578125,0.9990234375,3.2794189453125,0.362548828125,6.87744140625
2021-09-22 20:26:51.607613,-0.00341796875,0.05419921875,0.99560546875,3.2135009765625,0.3955078125,6.8719482421875
2021-09-22 20:26:51.617588,-0.005859375,0.0556640625,0.9990234375,3.1640625,0.4339599609375,6.866455078125
2021-09-22 20:26:51.627679,-0.005859375,0.056640625,1.00439453125,3.1201171875,0.4779052734375,6.85546875
2021-09-22 20:26:51.637614,-0.01171875,0.056640625,1.0029296875,3.087158203125,0.5328369140625,6.844482421875
2021-09-22 20:26:51.647888,-0.0166015625,0.05615234375,1.00634765625,3.065185546875,0.5877685546875,6.83349609375
2021-09-22 20:26:51.657385,-0.01708984375,0.05419921875,1.00537109375,3.05419921875,0.63720703125,6.8170166015625
2021-09-22 20:26:51.667474,-0.01953125,0.05224609375,1.00537109375,3.05419921875,0.6866455078125,6.8060302734375
2021-09-22 20:26:51.677536,-0.0234375,0.0517578125,1.00537109375,3.065185546875,0.7305908203125,6.800537109375
2021-09-22 20:26:51.687342,-0.02685546875,0.05029296875,1.01318359375,3.087158203125,0.7745361328125,6.800537109375
2021-09-22 20:26:51.697262,-0.025390625,0.0546875,1.01611328125,3.1201171875,0.823974609375,6.800537109375
2021-09-22 20:26:51.707330,-0.02734375,0.0595703125,1.01904296875,3.1640625,0.8843994140625,6.800537109375
2021-09-22 20:26:51.717239,-0.0224609375,0.05810546875,1.015625,3.2135009765625,0.9503173828125,6.800537109375
2021-09-22 20:26:51.727399,-0.0126953125,0.05810546875,1.01318359375,3.262939453125,1.0052490234375,6.7950439453125
2021-09-22 20:26:51.737145,-0.01171875,0.06201171875,1.01025390625,3.31787109375,1.0491943359375,6.7950439453125
2021-09-22 20:26:51.747252,-0.013671875,0.0625,1.005859375,3.372802734375,1.087646484375,6.7840576171875
2021-09-22 20:26:51.757163,-0.013671875,0.05810546875,1.00341796875,3.427734375,1.109619140625,6.778564453125
2021-09-22 20:26:51.767098,-0.02001953125,0.05810546875,1.01025390625,3.4771728515625,1.1260986328125,6.7730712890625
2021-09-22 20:26:51.776954,-0.02880859375,0.060546875,1.0126953125,3.5211181640625,1.142578125,6.767578125
2021-09-22 20:26:51.787099,-0.03271484375,0.060546875,1.0224609375,3.5540771484375,1.16455078125,6.7620849609375
2021-09-22 20:26:51.796947,-0.03125,0.06494140625,1.02490234375,3.58154296875,1.197509765625,6.7620849609375
2021-09-22 20:26:51.806921,-0.02880859375,0.06689453125,1.01953125,3.5980224609375,1.2249755859375,6.756591796875
2021-09-22 20:26:51.816989,-0.01953125,0.06396484375,1.017578125,3.603515625,1.2359619140625,6.756591796875
2021-09-22 20:26:51.826882,-0.01611328125,0.06103515625,1.01953125,3.5980224609375,1.23046875,6.756591796875
2021-09-22 20:26:51.836762,-0.013671875,0.0634765625,1.0146484375,3.5870361328125,1.219482421875,6.7620849609375
2021-09-22 20:26:51.846955,-0.01513671875,0.0615234375,1.0107421875,3.5650634765625,1.197509765625,6.778564453125
2021-09-22 20:26:51.856856,-0.017578125,0.0634765625,1.0107421875,3.53759765625,1.1810302734375,6.7950439453125
2021-09-22 20:26:51.866778,-0.0205078125,0.06640625,1.01025390625,3.4991455078125,1.175537109375,6.8115234375
2021-09-22 20:26:51.876707,-0.0224609375,0.06884765625,1.01025390625,3.460693359375,1.1920166015625,6.83349609375
2021-09-22 20:26:51.886803,-0.01806640625,0.0693359375,1.00634765625,3.427734375,1.219482421875,6.8499755859375
2021-09-22 20:26:51.896726,-0.0126953125,0.06494140625,1.005859375,3.3837890625,1.25244140625,6.8609619140625
2021-09-22 20:26:51.906638,-0.009765625,0.0634765625,1.00537109375,3.350830078125,1.2799072265625,6.87744140625
2021-09-22 20:26:51.917259,-0.0078125,0.0576171875,1.0068359375,3.3123779296875,1.3018798828125,6.8939208984375
2021-09-22 20:26:51.926581,-0.01025390625,0.0556640625,1.00341796875,3.2794189453125,1.318359375,6.9158935546875
2021-09-22 20:26:51.936487,-0.017578125,0.056640625,1.0146484375,3.2464599609375,1.3238525390625,6.943359375
2021-09-22 20:26:51.946550,-0.02197265625,0.05615234375,1.01806640625,3.2135009765625,1.329345703125,6.9818115234375
2021-09-22 20:26:51.956403,-0.0263671875,0.05712890625,1.021484375,3.18603515625,1.3348388671875,7.0147705078125
2021-09-22 20:26:51.966467,-0.0302734375,0.056640625,1.02001953125,3.153076171875,1.3348388671875,7.0477294921875
2021-09-22 20:26:51.976387,-0.02783203125,0.05615234375,1.02099609375,3.1256103515625,1.329345703125,7.0751953125
2021-09-22 20:26:51.986372,-0.02490234375,0.05419921875,1.017578125,3.0926513671875,1.3238525390625,7.1026611328125
2021-09-22 20:26:51.996617,-0.02001953125,0.05126953125,1.01806640625,3.0596923828125,1.3128662109375,7.119140625
2021-09-22 20:26:52.006392,-0.015625,0.05029296875,1.01806640625,3.0267333984375,1.307373046875,7.14111328125
2021-09-22 20:26:52.016269,-0.02099609375,0.04931640625,1.01904296875,2.9937744140625,1.3128662109375,7.1575927734375
2021-09-22 20:26:52.026170,-0.02001953125,0.04931640625,1.01904296875,2.9608154296875,1.3238525390625,7.1795654296875
2021-09-22 20:26:52.036218,-0.021484375,0.0517578125,1.01953125,2.933349609375,1.3348388671875,7.196044921875
2021-09-22 20:26:52.046122,-0.02197265625,0.05126953125,1.02099609375,2.911376953125,1.351318359375,7.218017578125
2021-09-22 20:26:52.056187,-0.01806640625,0.05224609375,1.015625,2.900390625,1.3568115234375,7.2344970703125
2021-09-22 20:26:52.066046,-0.01953125,0.05029296875,1.01318359375,2.8948974609375,1.3623046875,7.2454833984375
2021-09-22 20:26:52.076097,-0.01904296875,0.04541015625,1.009765625,2.8948974609375,1.3568115234375,7.261962890625
2021-09-22 20:26:52.085991,-0.017578125,0.0439453125,1.00927734375,2.900390625,1.3458251953125,7.27294921875
2021-09-22 20:26:52.095973,-0.01953125,0.0419921875,1.0146484375,2.900390625,1.3348388671875,7.2894287109375
2021-09-22 20:26:52.106235,-0.0224609375,0.04541015625,1.0185546875,2.9058837890625,1.329345703125,7.305908203125
2021-09-22 20:26:52.115998,-0.0234375,0.04541015625,1.0146484375,2.9058837890625,1.3348388671875,7.3223876953125
2021-09-22 20:26:52.125881,-0.0224609375,0.046875,1.013671875,2.911376953125,1.34033203125,7.3333740234375
2021-09-22 20:26:52.135787,-0.01806640625,0.05078125,1.01123046875,2.9168701171875,1.3458251953125,7.3388671875
2021-09-22 20:26:52.145888,-0.0146484375,0.04833984375,1.0078125,2.92236328125,1.351318359375,7.3388671875
2021-09-22 20:26:52.155767,-0.01171875,0.0478515625,1.00341796875,2.9278564453125,1.3458251953125,7.3333740234375
2021-09-22 20:26:52.165898,-0.01513671875,0.0458984375,1.001953125,2.933349609375,1.34033203125,7.3333740234375
2021-09-22 20:26:52.175804,-0.01806640625,0.0439453125,1.00439453125,2.9388427734375,1.3238525390625,7.327880859375
2021-09-22 20:26:52.185750,-0.02294921875,0.04443359375,1.00830078125,2.9388427734375,1.3128662109375,7.327880859375
2021-09-22 20:26:52.195686,-0.02587890625,0.0458984375,1.01171875,2.9443359375,1.307373046875,7.3333740234375
2021-09-22 20:26:52.205574,-0.02783203125,0.04541015625,1.01513671875,2.9498291015625,1.3018798828125,7.3443603515625
2021-09-22 20:26:52.215749,-0.0263671875,0.0478515625,1.0166015625,2.9498291015625,1.307373046875,7.349853515625
2021-09-22 20:26:52.225657,-0.02392578125,0.0478515625,1.0107421875,2.955322265625,1.318359375,7.3553466796875
2021-09-22 20:26:52.235542,-0.0185546875,0.048828125,1.0087890625,2.9608154296875,1.329345703125,7.3663330078125
2021-09-22 20:26:52.245392,-0.01611328125,0.048828125,1.0078125,2.9718017578125,1.3458251953125,7.3663330078125
2021-09-22 20:26:52.255497,-0.01806640625,0.05224609375,1.0048828125,2.9827880859375,1.3623046875,7.371826171875
2021-09-22 20:26:52.265422,-0.017578125,0.05029296875,1.00146484375,2.98828125,1.3677978515625,7.3773193359375
2021-09-22 20:26:52.275509,-0.02001953125,0.04638671875,1.00732421875,2.9937744140625,1.3677978515625,7.3883056640625
2021-09-22 20:26:52.285296,-0.02783203125,0.04541015625,1.01611328125,2.9937744140625,1.351318359375,7.40478515625
2021-09-22 20:26:52.295357,-0.0380859375,0.04638671875,1.0205078125,2.9937744140625,1.34033203125,7.4267578125
2021-09-22 20:26:52.305331,-0.0361328125,0.04541015625,1.0166015625,2.9827880859375,1.318359375,7.44873046875
2021-09-22 20:26:52.315270,-0.03076171875,0.05078125,1.01611328125,2.9718017578125,1.29638671875,7.4652099609375
2021-09-22 20:26:52.325341,-0.0263671875,0.05126953125,1.013671875,2.9608154296875,1.2799072265625,7.481689453125
2021-09-22 20:26:52.335294,-0.02099609375,0.0498046875,1.00634765625,2.9443359375,1.2689208984375,7.49267578125
2021-09-22 20:26:52.345126,-0.0126953125,0.04736328125,1.005859375,2.9278564453125,1.25244140625,7.49267578125
2021-09-22 20:26:52.355258,-0.0087890625,0.04736328125,1.0029296875,2.9058837890625,1.2359619140625,7.49267578125
2021-09-22 20:26:52.365169,-0.0078125,0.046875,1.00732421875,2.87841796875,1.219482421875,7.49267578125
2021-09-22 20:26:52.375117,-0.01171875,0.04443359375,1.00634765625,2.8509521484375,1.20849609375,7.49267578125
2021-09-22 20:26:52.385075,-0.01611328125,0.04541015625,1.0107421875,2.823486328125,1.197509765625,7.4871826171875
2021-09-22 20:26:52.395085,-0.01806640625,0.046875,1.0087890625,2.7960205078125,1.1865234375,7.4871826171875
2021-09-22 20:26:52.404981,-0.021484375,0.0439453125,1.0087890625,2.7740478515625,1.1865234375,7.481689453125
2021-09-22 20:26:52.415586,-0.02001953125,0.04443359375,1.0068359375,2.757568359375,1.1810302734375,7.470703125
2021-09-22 20:26:52.424888,-0.01904296875,0.04541015625,1.00537109375,2.74658203125,1.175537109375,7.4542236328125
2021-09-22 20:26:52.435034,-0.01708984375,0.04296875,1.0087890625,2.735595703125,1.1700439453125,7.4432373046875
2021-09-22 20:26:52.444923,-0.01513671875,0.04052734375,1.00439453125,2.7301025390625,1.153564453125,7.4322509765625
2021-09-22 20:26:52.454803,-0.02294921875,0.0390625,1.0087890625,2.724609375,1.1370849609375,7.4267578125
2021-09-22 20:26:52.464934,-0.02685546875,0.0400390625,1.01025390625,2.7191162109375,1.12060546875,7.4267578125
2021-09-22 20:26:52.474787,-0.029296875,0.03857421875,1.0107421875,2.7081298828125,1.0986328125,7.437744140625
2021-09-22 20:26:52.484748,-0.0302734375,0.0400390625,1.01220703125,2.691650390625,1.07666015625,7.44873046875
2021-09-22 20:26:52.494663,-0.02978515625,0.044921875,1.01025390625,2.6806640625,1.0546875,7.4542236328125
2021-09-22 20:26:52.504718,-0.0283203125,0.044921875,1.01171875,2.6641845703125,1.043701171875,7.459716796875
2021-09-22 20:26:52.514661,-0.0283203125,0.04638671875,1.00732421875,2.6422119140625,1.0382080078125,7.4542236328125
2021-09-22 20:26:52.524594,-0.0263671875,0.0458984375,1.01220703125,2.61474609375,1.0382080078125,7.4432373046875
2021-09-22 20:26:52.534479,-0.02734375,0.044921875,1.01171875,2.5872802734375,1.043701171875,7.4322509765625
2021-09-22 20:26:52.544719,-0.0244140625,0.044921875,1.0068359375,2.559814453125,1.043701171875,7.415771484375
2021-09-22 20:26:52.554516,-0.02099609375,0.0439453125,0.9990234375,2.52685546875,1.0272216796875,7.393798828125
2021-09-22 20:26:52.564480,-0.01611328125,0.04150390625,0.99560546875,2.5048828125,0.98876953125,7.3773193359375
2021-09-22 20:26:52.574308,-0.01513671875,0.041015625,1.0048828125,2.48291015625,0.933837890625,7.3663330078125
2021-09-22 20:26:52.584402,-0.0205078125,0.0400390625,1.00048828125,2.4609375,0.8734130859375,7.3553466796875
2021-09-22 20:26:52.594516,-0.0224609375,0.04345703125,1.005859375,2.43896484375,0.81298828125,7.3443603515625
2021-09-22 20:26:52.604274,-0.02197265625,0.04296875,1.01025390625,2.4169921875,0.7635498046875,7.3333740234375
2021-09-22 20:26:52.614330,-0.01513671875,0.0458984375,1.001953125,2.39501953125,0.714111328125,7.3223876953125
2021-09-22 20:26:52.624254,-0.0146484375,0.0458984375,1.0029296875,2.3675537109375,0.6756591796875,7.3114013671875
2021-09-22 20:26:52.634259,-0.01123046875,0.0458984375,0.998046875,2.3345947265625,0.626220703125,7.294921875
2021-09-22 20:26:52.644077,-0.005859375,0.04541015625,0.99951171875,2.296142578125,0.5712890625,7.27294921875
2021-09-22 20:26:52.654302,-0.0048828125,0.04736328125,0.99951171875,2.26318359375,0.516357421875,7.2509765625
2021-09-22 20:26:52.664128,-0.00537109375,0.046875,0.99267578125,2.2357177734375,0.4669189453125,7.22900390625
2021-09-22 20:26:52.674065,-0.00732421875,0.044921875,0.9951171875,2.208251953125,0.41748046875,7.2015380859375
2021-09-22 20:26:52.684222,-0.0078125,0.04638671875,0.99267578125,2.197265625,0.3680419921875,7.18505859375
2021-09-22 20:26:52.694043,-0.00830078125,0.046875,0.9912109375,2.2027587890625,0.32958984375,7.1685791015625
2021-09-22 20:26:52.703971,-0.005859375,0.046875,0.98291015625,2.21923828125,0.28564453125,7.1575927734375
2021-09-22 20:26:52.714189,-0.00634765625,0.0498046875,0.98583984375,2.2576904296875,0.24169921875,7.1575927734375
2021-09-22 20:26:52.724007,-0.0078125,0.04931640625,0.98779296875,2.3126220703125,0.19775390625,7.1630859375
2021-09-22 20:26:52.733912,-0.0107421875,0.05517578125,0.98779296875,2.384033203125,0.17578125,7.1795654296875
2021-09-22 20:26:52.743814,-0.01171875,0.05712890625,0.9990234375,2.471923828125,0.164794921875,7.196044921875
2021-09-22 20:26:52.753878,-0.01171875,0.05712890625,0.9990234375,2.559814453125,0.15380859375,7.2125244140625
2021-09-22 20:26:52.763907,-0.0107421875,0.05908203125,0.99560546875,2.6641845703125,0.1702880859375,7.2344970703125
2021-09-22 20:26:52.773841,-0.013671875,0.06396484375,1.00244140625,2.779541015625,0.208740234375,7.2509765625
2021-09-22 20:26:52.783682,-0.00927734375,0.0654296875,0.9912109375,2.9058837890625,0.2471923828125,7.261962890625
2021-09-22 20:26:52.793841,-0.00390625,0.06005859375,0.98681640625,3.0322265625,0.2801513671875,7.2674560546875
2021-09-22 20:26:52.803728,-0.0029296875,0.0595703125,0.99072265625,3.1640625,0.2911376953125,7.27294921875
2021-09-22 20:26:52.813631,-0.00732421875,0.0615234375,0.99365234375,3.2904052734375,0.2801513671875,7.2784423828125
2021-09-22 20:26:52.823620,-0.009765625,0.056640625,0.99609375,3.4112548828125,0.2581787109375,7.2894287109375
2021-09-22 20:26:52.833538,-0.01513671875,0.06201171875,0.9970703125,3.526611328125,0.2252197265625,7.3004150390625
2021-09-22 20:26:52.843554,-0.02294921875,0.06689453125,1.009765625,3.636474609375,0.19775390625,7.3114013671875
2021-09-22 20:26:52.853464,-0.0224609375,0.07080078125,1.00732421875,3.7408447265625,0.1702880859375,7.3223876953125
2021-09-22 20:26:52.863392,-0.01708984375,0.068359375,1.005859375,3.834228515625,0.1483154296875,7.3333740234375
2021-09-22 20:26:52.873479,-0.01123046875,0.07470703125,1.00244140625,3.922119140625,0.1373291015625,7.3333740234375
2021-09-22 20:26:52.883475,-0.00537109375,0.07568359375,0.9970703125,3.9990234375,0.1263427734375,7.3388671875
2021-09-22 20:26:52.893303,0.00048828125,0.07666015625,0.990234375,4.0704345703125,0.1153564453125,7.3388671875
2021-09-22 20:26:52.903459,0.00439453125,0.078125,0.99365234375,4.130859375,0.1043701171875,7.3388671875
2021-09-22 20:26:52.913961,0.00830078125,0.07568359375,0.9912109375,4.185791015625,0.087890625,7.3388671875
2021-09-22 20:26:52.923254,0.0107421875,0.0751953125,0.99072265625,4.2352294921875,0.0823974609375,7.3388671875
2021-09-22 20:26:52.933338,0.005859375,0.078125,0.990234375,4.28466796875,0.087890625,7.3333740234375
2021-09-22 20:26:52.943096,0.0048828125,0.07177734375,0.98779296875,4.32861328125,0.098876953125,7.327880859375
2021-09-22 20:26:52.953280,0.00634765625,0.06982421875,0.9931640625,4.3670654296875,0.1153564453125,7.3223876953125
2021-09-22 20:26:52.963164,0.00146484375,0.07373046875,0.9921875,4.39453125,0.1263427734375,7.31689453125
2021-09-22 20:26:52.973036,-0.00244140625,0.0703125,0.99560546875,4.4110107421875,0.1373291015625,7.31689453125
2021-09-22 20:26:52.983250,-0.00244140625,0.07177734375,0.9990234375,4.4219970703125,0.15380859375,7.3223876953125
2021-09-22 20:26:52.993124,-0.00390625,0.0732421875,1.00537109375,4.4219970703125,0.1812744140625,7.3388671875
2021-09-22 20:26:53.002959,-0.00341796875,0.07666015625,1.00146484375,4.41650390625,0.230712890625,7.3553466796875
2021-09-22 20:26:53.012886,0.0,0.08056640625,0.99609375,4.41650390625,0.2911376953125,7.3828125
2021-09-22 20:26:53.022289,0.0,0.08056640625,1.0,4.4110107421875,0.3680419921875,7.4102783203125
2021-09-22 20:26:53.032258,0.00341796875,0.07861328125,0.994140625,4.405517578125,0.450439453125,7.437744140625
2021-09-22 20:26:53.042907,0.0029296875,0.07470703125,0.99560546875,4.4000244140625,0.516357421875,7.470703125
2021-09-22 20:26:53.052803,-0.001953125,0.07373046875,1.00048828125,4.3890380859375,0.5767822265625,7.503662109375
2021-09-22 20:26:53.062845,-0.009765625,0.07421875,1.0068359375,4.3670654296875,0.626220703125,7.547607421875
2021-09-22 20:26:53.072732,-0.0185546875,0.07763671875,1.013671875,4.3450927734375,0.6866455078125,7.58056640625
2021-09-22 20:26:53.082657,-0.01708984375,0.07568359375,1.01708984375,4.317626953125,0.7470703125,7.6190185546875
2021-09-22 20:26:53.092557,-0.013671875,0.0751953125,1.01806640625,4.28466796875,0.8074951171875,7.646484375
2021-09-22 20:26:53.102747,-0.01123046875,0.07568359375,1.013671875,4.251708984375,0.8734130859375,7.66845703125
2021-09-22 20:26:53.112633,-0.00927734375,0.0751953125,1.01025390625,4.2132568359375,0.9283447265625,7.6904296875
2021-09-22 20:26:53.122490,-0.009765625,0.06982421875,1.01025390625,4.1693115234375,0.966796875,7.7069091796875
2021-09-22 20:26:53.132664,-0.00927734375,0.06884765625,1.01806640625,4.119873046875,0.9942626953125,7.723388671875
2021-09-22 20:26:53.142601,-0.0146484375,0.0732421875,1.0205078125,4.0704345703125,1.0162353515625,7.745361328125
2021-09-22 20:26:53.152656,-0.01611328125,0.07373046875,1.015625,4.02099609375,1.0491943359375,7.7618408203125
2021-09-22 20:26:53.162420,-0.01611328125,0.072265625,1.01611328125,3.9715576171875,1.0821533203125,7.7728271484375
2021-09-22 20:26:53.172497,-0.0126953125,0.07421875,1.01904296875,3.9276123046875,1.1151123046875,7.7783203125
2021-09-22 20:26:53.182399,-0.01318359375,0.072265625,1.01513671875,3.8836669921875,1.1590576171875,7.7838134765625
2021-09-22 20:26:53.192289,-0.01318359375,0.068359375,1.013671875,3.84521484375,1.197509765625,7.789306640625
2021-09-22 20:26:53.202536,-0.01123046875,0.064453125,1.01806640625,3.8067626953125,1.2359619140625,7.80029296875
2021-09-22 20:26:53.212371,-0.0107421875,0.06201171875,1.01708984375,3.768310546875,1.2744140625,7.8167724609375
2021-09-22 20:26:53.222257,-0.01171875,0.0634765625,1.01806640625,3.7298583984375,1.307373046875,7.833251953125
2021-09-22 20:26:53.232178,-0.01904296875,0.064453125,1.0166015625,3.6968994140625,1.34033203125,7.855224609375
2021-09-22 20:26:53.242283,-0.02490234375,0.0673828125,1.017578125,3.6749267578125,1.3787841796875,7.8717041015625
2021-09-22 20:26:53.252323,-0.02490234375,0.06494140625,1.02001953125,3.658447265625,1.4117431640625,7.8936767578125
2021-09-22 20:26:53.262180,-0.0234375,0.05908203125,1.01953125,3.6419677734375,1.4337158203125,7.9046630859375
2021-09-22 20:26:53.272022,-0.02197265625,0.056640625,1.021484375,3.62548828125,1.4501953125,7.9266357421875
2021-09-22 20:26:53.282154,-0.02783203125,0.05908203125,1.02392578125,3.6090087890625,1.47216796875,7.9486083984375
2021-09-22 20:26:53.292046,-0.02734375,0.0556640625,1.02490234375,3.5870361328125,1.483154296875,7.9705810546875
2021-09-22 20:26:53.301967,-0.02587890625,0.06005859375,1.02392578125,3.570556640625,1.494140625,7.9925537109375
2021-09-22 20:26:53.312092,-0.02392578125,0.06298828125,1.01708984375,3.548583984375,1.505126953125,8.0145263671875
2021-09-22 20:26:53.322023,-0.01953125,0.0625,1.01416015625,3.5321044921875,1.51611328125,8.031005859375
2021-09-22 20:26:53.331895,-0.017578125,0.0595703125,1.01220703125,3.515625,1.5216064453125,8.0419921875
2021-09-22 20:26:53.341840,-0.01513671875,0.05810546875,1.0078125,3.504638671875,1.5216064453125,8.052978515625
2021-09-22 20:26:53.351889,-0.01708984375,0.0546875,1.01220703125,3.49365234375,1.5216064453125,8.0584716796875
2021-09-22 20:26:53.361893,-0.01708984375,0.05224609375,1.0166015625,3.4881591796875,1.5216064453125,8.06396484375
2021-09-22 20:26:53.371856,-0.02001953125,0.0537109375,1.01416015625,3.4771728515625,1.527099609375,8.0694580078125
2021-09-22 20:26:53.381760,-0.017578125,0.05224609375,1.0107421875,3.460693359375,1.5325927734375,8.0804443359375
2021-09-22 20:26:53.391792,-0.0166015625,0.0537109375,1.01025390625,3.44970703125,1.5325927734375,8.0914306640625
2021-09-22 20:26:53.401741,-0.017578125,0.0537109375,1.01318359375,3.438720703125,1.527099609375,8.096923828125
2021-09-22 20:26:53.412135,-0.02099609375,0.05712890625,1.01123046875,3.4222412109375,1.5216064453125,8.1024169921875
2021-09-22 20:26:53.421536,-0.021484375,0.0546875,1.013671875,3.4112548828125,1.51611328125,8.096923828125
2021-09-22 20:26:53.431674,-0.017578125,0.05419921875,1.01416015625,3.3892822265625,1.5106201171875,8.0859375
2021-09-22 20:26:53.441567,-0.02001953125,0.0546875,1.013671875,3.372802734375,1.5106201171875,8.074951171875
2021-09-22 20:26:53.451514,-0.02294921875,0.05517578125,1.00634765625,3.350830078125,1.51611328125,8.06396484375
2021-09-22 20:26:53.461411,-0.02294921875,0.05322265625,1.00537109375,3.328857421875,1.5216064453125,8.052978515625
2021-09-22 20:26:53.471535,-0.025390625,0.0537109375,1.0068359375,3.306884765625,1.527099609375,8.0474853515625
2021-09-22 20:26:53.481539,-0.02783203125,0.052734375,1.00830078125,3.2794189453125,1.5380859375,8.0419921875
2021-09-22 20:26:53.491348,-0.0263671875,0.052734375,1.00537109375,3.2574462890625,1.5545654296875,8.0364990234375
2021-09-22 20:26:53.501297,-0.02587890625,0.0546875,1.00634765625,3.240966796875,1.571044921875,8.031005859375
2021-09-22 20:26:53.511382,-0.02587890625,0.05712890625,1.00341796875,3.218994140625,1.5985107421875,8.0255126953125
2021-09-22 20:26:53.521292,-0.029296875,0.05517578125,1.00537109375,3.197021484375,1.6259765625,8.02001953125
2021-09-22 20:26:53.531393,-0.0283203125,0.0537109375,1.001953125,3.175048828125,1.6534423828125,8.0145263671875
2021-09-22 20:26:53.541153,-0.03125,0.052734375,1.00146484375,3.153076171875,1.680908203125,8.0035400390625
2021-09-22 20:26:53.551276,-0.03173828125,0.05029296875,1.0,3.1256103515625,1.702880859375,7.998046875
2021-09-22 20:26:53.561150,-0.0361328125,0.048828125,1.00439453125,3.1036376953125,1.7138671875,7.987060546875
2021-09-22 20:26:53.571065,-0.04052734375,0.052734375,1.00732421875,3.0816650390625,1.724853515625,7.9815673828125
2021-09-22 20:26:53.581115,-0.0439453125,0.05615234375,1.013671875,3.0596923828125,1.7413330078125,7.9705810546875
2021-09-22 20:26:53.591226,-0.04052734375,0.0546875,1.00732421875,3.043212890625,1.7578125,7.9595947265625
2021-09-22 20:26:53.601018,-0.03955078125,0.05419921875,1.0048828125,3.0267333984375,1.7852783203125,7.9486083984375
2021-09-22 20:26:53.610901,-0.0380859375,0.05322265625,1.00634765625,3.01025390625,1.8072509765625,7.93212890625
2021-09-22 20:26:53.620986,-0.0390625,0.05126953125,1.0087890625,2.999267578125,1.8292236328125,7.9266357421875
2021-09-22 20:26:53.630937,-0.04052734375,0.0517578125,1.00830078125,2.98828125,1.845703125,7.9156494140625
2021-09-22 20:26:53.641033,-0.0419921875,0.05078125,1.0078125,2.9827880859375,1.8511962890625,7.9156494140625
2021-09-22 20:26:53.650953,-0.03955078125,0.048828125,1.0087890625,2.977294921875,1.8511962890625,7.91015625
2021-09-22 20:26:53.660849,-0.03857421875,0.05029296875,1.01123046875,2.977294921875,1.8402099609375,7.91015625
2021-09-22 20:26:53.670761,-0.0400390625,0.0517578125,1.01123046875,2.977294921875,1.8292236328125,7.91015625
2021-09-22 20:26:53.680678,-0.04052734375,0.0517578125,1.01171875,2.977294921875,1.8182373046875,7.91015625
2021-09-22 20:26:53.690783,-0.0400390625,0.05224609375,1.0068359375,2.9718017578125,1.8182373046875,7.9046630859375
2021-09-22 20:26:53.700734,-0.03662109375,0.05224609375,1.0029296875,2.96630859375,1.82373046875,7.9046630859375
2021-09-22 20:26:53.710658,-0.03125,0.052734375,1.00146484375,2.9608154296875,1.834716796875,7.899169921875
2021-09-22 20:26:53.720588,-0.0283203125,0.05322265625,1.00048828125,2.955322265625,1.8402099609375,7.899169921875
2021-09-22 20:26:53.730631,-0.0263671875,0.0537109375,0.998046875,2.9498291015625,1.8511962890625,7.899169921875
2021-09-22 20:26:53.740538,-0.02880859375,0.0517578125,0.994140625,2.9498291015625,1.8621826171875,7.899169921875
2021-09-22 20:26:53.750569,-0.02978515625,0.052734375,0.99609375,2.9498291015625,1.8731689453125,7.9046630859375
2021-09-22 20:26:53.760416,-0.033203125,0.052734375,0.99462890625,2.955322265625,1.8896484375,7.9046630859375
2021-09-22 20:26:53.770483,-0.03369140625,0.0478515625,0.99365234375,2.9608154296875,1.900634765625,7.9046630859375
2021-09-22 20:26:53.780408,-0.0322265625,0.04833984375,0.9970703125,2.96630859375,1.91162109375,7.9046630859375
2021-09-22 20:26:53.790331,-0.03369140625,0.0478515625,1.0009765625,2.9718017578125,1.922607421875,7.91015625
2021-09-22 20:26:53.800375,-0.0322265625,0.0478515625,1.00390625,2.9718017578125,1.9281005859375,7.921142578125
2021-09-22 20:26:53.810388,-0.033203125,0.04931640625,1.00537109375,2.9608154296875,1.93359375,7.9376220703125
2021-09-22 20:26:53.820321,-0.03125,0.05224609375,1.00537109375,2.9498291015625,1.9500732421875,7.9595947265625
2021-09-22 20:26:53.830257,-0.03466796875,0.0517578125,1.00341796875,2.9388427734375,1.966552734375,7.97607421875
2021-09-22 20:26:53.840275,-0.03173828125,0.0537109375,1.00439453125,2.9168701171875,1.9940185546875,7.9925537109375
2021-09-22 20:26:53.850247,-0.03076171875,0.05224609375,0.9990234375,2.8948974609375,2.0159912109375,7.998046875
2021-09-22 20:26:53.860093,-0.03076171875,0.04931640625,1.00537109375,2.8619384765625,2.0269775390625,8.009033203125
2021-09-22 20:26:53.870307,-0.03369140625,0.04638671875,1.00341796875,2.823486328125,2.0379638671875,8.0145263671875
2021-09-22 20:26:53.880145,-0.03662109375,0.04296875,1.0068359375,2.779541015625,2.0379638671875,8.0255126953125
2021-09-22 20:26:53.890042,-0.03857421875,0.04296875,1.0068359375,2.724609375,2.0379638671875,8.0364990234375
2021-09-22 20:26:53.900006,-0.04345703125,0.0458984375,1.013671875,2.6751708984375,2.0379638671875,8.0474853515625
2021-09-22 20:26:53.910527,-0.0439453125,0.0458984375,1.0166015625,2.625732421875,2.054443359375,8.0584716796875
2021-09-22 20:26:53.920057,-0.0380859375,0.04638671875,1.01513671875,2.5762939453125,2.0709228515625,8.0694580078125
2021-09-22 20:26:53.929938,-0.0341796875,0.04736328125,1.01611328125,2.5323486328125,2.0928955078125,8.074951171875
2021-09-22 20:26:53.939815,-0.0322265625,0.0498046875,1.0087890625,2.493896484375,2.1148681640625,8.0804443359375
2021-09-22 20:26:53.949957,-0.03076171875,0.0458984375,1.01171875,2.4609375,2.1368408203125,8.0914306640625
2021-09-22 20:26:53.959880,-0.0341796875,0.04296875,1.01171875,2.4334716796875,2.1478271484375,8.10791015625
2021-09-22 20:26:53.969778,-0.03515625,0.04345703125,1.01123046875,2.4114990234375,2.1533203125,8.1243896484375
2021-09-22 20:26:53.979836,-0.03955078125,0.04443359375,1.009765625,2.4005126953125,2.1533203125,8.140869140625
2021-09-22 20:26:53.989773,-0.04248046875,0.04345703125,1.0126953125,2.39501953125,2.164306640625,8.162841796875
2021-09-22 20:26:53.999686,-0.0419921875,0.046875,1.0087890625,2.4005126953125,2.17529296875,8.1793212890625
2021-09-22 20:26:54.009573,-0.03759765625,0.04443359375,1.00927734375,2.4114990234375,2.1917724609375,8.1903076171875
2021-09-22 20:26:54.019643,-0.03271484375,0.04052734375,1.0087890625,2.4224853515625,2.208251953125,8.2012939453125
2021-09-22 20:26:54.029725,-0.03271484375,0.0439453125,1.00830078125,2.43896484375,2.230224609375,8.206787109375
2021-09-22 20:26:54.039563,-0.03271484375,0.0439453125,1.01025390625,2.4554443359375,2.252197265625,8.2177734375
2021-09-22 20:26:54.049645,-0.03466796875,0.04345703125,1.01123046875,2.4774169921875,2.274169921875,8.2232666015625
2021-09-22 20:26:54.059587,-0.029296875,0.0439453125,1.00830078125,2.493896484375,2.2906494140625,8.2342529296875
2021-09-22 20:26:54.069476,-0.0322265625,0.04443359375,1.005859375,2.5103759765625,2.3126220703125,8.23974609375
2021-09-22 20:26:54.079337,-0.03466796875,0.04443359375,1.00390625,2.52685546875,2.3291015625,8.2452392578125
2021-09-22 20:26:54.089526,-0.03662109375,0.0439453125,1.005859375,2.537841796875,2.3455810546875,8.250732421875
2021-09-22 20:26:54.099412,-0.03955078125,0.041015625,1.0068359375,2.548828125,2.3565673828125,8.2562255859375
2021-09-22 20:26:54.109317,-0.04296875,0.04296875,1.00830078125,2.559814453125,2.373046875,8.2562255859375
2021-09-22 20:26:54.119267,-0.0439453125,0.04296875,1.0078125,2.559814453125,2.3895263671875,8.26171875
2021-09-22 20:26:54.129276,-0.04248046875,0.04248046875,1.009765625,2.559814453125,2.406005859375,8.2672119140625
2021-09-22 20:26:54.139551,-0.0400390625,0.04345703125,1.01220703125,2.5543212890625,2.4224853515625,8.2672119140625
2021-09-22 20:26:54.149167,-0.03857421875,0.04443359375,1.00634765625,2.5433349609375,2.4334716796875,8.2672119140625
2021-09-22 20:26:54.159085,-0.041015625,0.04541015625,1.00439453125,2.5323486328125,2.449951171875,8.272705078125
2021-09-22 20:26:54.169193,-0.04052734375,0.04248046875,1.0029296875,2.5103759765625,2.4664306640625,8.2672119140625
2021-09-22 20:26:54.179129,-0.04248046875,0.04248046875,1.0029296875,2.493896484375,2.48291015625,8.2672119140625
2021-09-22 20:26:54.189008,-0.04052734375,0.04248046875,1.0048828125,2.4774169921875,2.5048828125,8.2672119140625
2021-09-22 20:26:54.199087,-0.03955078125,0.03955078125,1.00390625,2.4554443359375,2.5213623046875,8.272705078125
2021-09-22 20:26:54.209027,-0.04248046875,0.0400390625,1.00537109375,2.43896484375,2.537841796875,8.2781982421875
2021-09-22 20:26:54.218962,-0.04345703125,0.041015625,1.0078125,2.4224853515625,2.5543212890625,8.2891845703125
2021-09-22 20:26:54.228879,-0.04541015625,0.04052734375,1.01123046875,2.406005859375,2.5762939453125,8.3056640625
2021-09-22 20:26:54.238963,-0.04638671875,0.04052734375,1.0107421875,2.3895263671875,2.5982666015625,8.316650390625
2021-09-22 20:26:54.248897,-0.046875,0.04296875,1.0087890625,2.3785400390625,2.625732421875,8.3331298828125
2021-09-22 20:26:54.258854,-0.048828125,0.0439453125,1.0068359375,2.3675537109375,2.6531982421875,8.349609375
2021-09-22 20:26:54.268747,-0.04931640625,0.0400390625,1.0087890625,2.35107421875,2.6806640625,8.360595703125
2021-09-22 20:26:54.278703,-0.04541015625,0.0390625,1.00634765625,2.3345947265625,2.70263671875,8.3770751953125
2021-09-22 20:26:54.288761,-0.04443359375,0.03759765625,1.00341796875,2.3126220703125,2.7191162109375,8.3935546875
2021-09-22 20:26:54.298690,-0.04736328125,0.0400390625,1.0068359375,2.296142578125,2.7301025390625,8.4100341796875
2021-09-22 20:26:54.308689,-0.0517578125,0.03955078125,1.01025390625,2.2686767578125,2.7410888671875,8.4210205078125
2021-09-22 20:26:54.318790,-0.052734375,0.04052734375,1.0078125,2.2412109375,2.757568359375,8.4375
2021-09-22 20:26:54.328664,-0.0537109375,0.0361328125,1.00537109375,2.208251953125,2.7740478515625,8.4429931640625
2021-09-22 20:26:54.338608,-0.05224609375,0.03173828125,1.005859375,2.1697998046875,2.79052734375,8.448486328125
2021-09-22 20:26:54.348415,-0.0556640625,0.0341796875,1.01171875,2.13134765625,2.801513671875,8.4539794921875
2021-09-22 20:26:54.358500,-0.0537109375,0.03564453125,1.01171875,2.098388671875,2.8070068359375,8.45947265625
2021-09-22 20:26:54.368436,-0.05322265625,0.03076171875,1.0078125,2.054443359375,2.8125,8.4649658203125
2021-09-22 20:26:54.378326,-0.05078125,0.03125,1.009765625,2.021484375,2.8179931640625,8.470458984375
2021-09-22 20:26:54.388503,-0.05126953125,0.03369140625,1.01123046875,1.988525390625,2.8289794921875,8.4759521484375
2021-09-22 20:26:54.398444,-0.05126953125,0.03271484375,1.0126953125,1.9610595703125,2.8399658203125,8.4814453125
2021-09-22 20:26:54.409030,-0.052734375,0.03076171875,1.01123046875,1.9390869140625,2.8564453125,8.4814453125
2021-09-22 20:26:54.418260,-0.05029296875,0.03173828125,1.01123046875,1.9281005859375,2.87841796875,8.4814453125
2021-09-22 20:26:54.428134,-0.05029296875,0.02880859375,1.01025390625,1.922607421875,2.900390625,8.4814453125
2021-09-22 20:26:54.438411,-0.05322265625,0.0283203125,1.013671875,1.9171142578125,2.92236328125,8.4814453125
2021-09-22 20:26:54.448222,-0.05615234375,0.02734375,1.013671875,1.9171142578125,2.9498291015625,8.4869384765625
2021-09-22 20:26:54.458100,-0.0556640625,0.02587890625,1.01318359375,1.9281005859375,2.977294921875,8.4869384765625
2021-09-22 20:26:54.467997,-0.0556640625,0.0302734375,1.01220703125,1.9390869140625,3.01025390625,8.492431640625
2021-09-22 20:26:54.478057,-0.0576171875,0.03125,1.00927734375,1.95556640625,3.0377197265625,8.492431640625
2021-09-22 20:26:54.487995,-0.05810546875,0.0302734375,1.01171875,1.9775390625,3.065185546875,8.492431640625
2021-09-22 20:26:54.498178,-0.0556640625,0.03271484375,1.013671875,1.99951171875,3.076171875,8.492431640625
2021-09-22 20:26:54.508096,-0.05712890625,0.033203125,1.0126953125,2.0269775390625,3.087158203125,8.4869384765625
2021-09-22 20:26:54.518015,-0.05419921875,0.02734375,1.0107421875,2.0489501953125,3.087158203125,8.4814453125
2021-09-22 20:26:54.527899,-0.0537109375,0.02734375,1.0107421875,2.0709228515625,3.0816650390625,8.4759521484375
2021-09-22 20:26:54.537801,-0.05517578125,0.02734375,1.01220703125,2.08740234375,3.0706787109375,8.4649658203125
2021-09-22 20:26:54.547857,-0.0546875,0.025390625,1.01220703125,2.1038818359375,3.05419921875,8.4649658203125
2021-09-22 20:26:54.557863,-0.05078125,0.02685546875,1.00732421875,2.120361328125,3.043212890625,8.45947265625
2021-09-22 20:26:54.567750,-0.04736328125,0.02783203125,1.00146484375,2.13134765625,3.0157470703125,8.45947265625
2021-09-22 20:26:54.577623,-0.04443359375,0.02783203125,1.00390625,2.142333984375,2.98828125,8.45947265625
2021-09-22 20:26:54.587721,-0.04296875,0.029296875,0.99951171875,2.1478271484375,2.9498291015625,8.45947265625
2021-09-22 20:26:54.597598,-0.03955078125,0.02978515625,0.99755859375,2.1533203125,2.900390625,8.45947265625
2021-09-22 20:26:54.607494,-0.0419921875,0.0302734375,0.99609375,2.1588134765625,2.8509521484375,8.45947265625
2021-09-22 20:26:54.617491,-0.0419921875,0.02978515625,1.0048828125,2.1533203125,2.7960205078125,8.4539794921875
2021-09-22 20:26:54.627600,-0.04248046875,0.029296875,1.0107421875,2.1478271484375,2.7520751953125,8.448486328125
2021-09-22 20:26:54.637532,-0.0400390625,0.03076171875,1.00439453125,2.13134765625,2.713623046875,8.4429931640625
2021-09-22 20:26:54.647604,-0.0380859375,0.03173828125,1.00048828125,2.109375,2.691650390625,8.426513671875
2021-09-22 20:26:54.657453,-0.0341796875,0.03125,1.00048828125,2.0819091796875,2.669677734375,8.404541015625
2021-09-22 20:26:54.667577,-0.03125,0.02978515625,0.9990234375,2.04345703125,2.6531982421875,8.382568359375
2021-09-22 20:26:54.677367,-0.03076171875,0.03173828125,0.9931640625,1.99951171875,2.6422119140625,8.3551025390625
2021-09-22 20:26:54.687399,-0.0341796875,0.03271484375,0.99951171875,1.9500732421875,2.63671875,8.3221435546875
2021-09-22 20:26:54.697354,-0.03515625,0.0322265625,0.99462890625,1.8896484375,2.63671875,8.2891845703125
2021-09-22 20:26:54.707264,-0.03955078125,0.03173828125,1.00146484375,1.8292236328125,2.63671875,8.2562255859375
2021-09-22 20:26:54.717287,-0.04345703125,0.033203125,0.99951171875,1.7633056640625,2.63671875,8.2177734375
2021-09-22 20:26:54.727377,-0.04833984375,0.029296875,1.0029296875,1.69189453125,2.6312255859375,8.1793212890625
2021-09-22 20:26:54.737216,-0.052734375,0.0302734375,1.00537109375,1.6259765625,2.625732421875,8.1463623046875
2021-09-22 20:26:54.747168,-0.05419921875,0.0302734375,1.009765625,1.56005859375,2.6202392578125,8.10791015625
2021-09-22 20:26:54.757233,-0.05517578125,0.02978515625,1.009765625,1.494140625,2.6202392578125,8.074951171875
2021-09-22 20:26:54.767103,-0.0556640625,0.03173828125,1.01806640625,1.439208984375,2.63671875,8.0419921875
2021-09-22 20:26:54.777043,-0.0517578125,0.033203125,1.0126953125,1.38427734375,2.6531982421875,8.0145263671875
2021-09-22 20:26:54.787038,-0.05322265625,0.03466796875,1.01220703125,1.34033203125,2.6806640625,7.987060546875
2021-09-22 20:26:54.797079,-0.0546875,0.03515625,1.02001953125,1.3018798828125,2.7081298828125,7.9595947265625
2021-09-22 20:26:54.806921,-0.05322265625,0.03369140625,1.01611328125,1.2744140625,2.7301025390625,7.9376220703125
2021-09-22 20:26:54.816846,-0.056640625,0.0341796875,1.015625,1.25244140625,2.74658203125,7.9156494140625
2021-09-22 20:26:54.826911,-0.05810546875,0.0380859375,1.0166015625,1.25244140625,2.757568359375,7.9046630859375
2021-09-22 20:26:54.836804,-0.06298828125,0.04052734375,1.02001953125,1.2579345703125,2.779541015625,7.8936767578125
2021-09-22 20:26:54.847076,-0.06201171875,0.037109375,1.017578125,1.2744140625,2.7960205078125,7.877197265625
2021-09-22 20:26:54.856769,-0.05859375,0.03466796875,1.01611328125,1.3018798828125,2.801513671875,7.8717041015625
2021-09-22 20:26:54.866834,-0.0546875,0.03369140625,1.017578125,1.3348388671875,2.801513671875,7.8662109375
2021-09-22 20:26:54.876707,-0.05419921875,0.0322265625,1.01904296875,1.3677978515625,2.7850341796875,7.8717041015625
2021-09-22 20:26:54.886670,-0.05419921875,0.0322265625,1.01708984375,1.4007568359375,2.7630615234375,7.877197265625
2021-09-22 20:26:54.896736,-0.05517578125,0.033203125,1.01318359375,1.4337158203125,2.7301025390625,7.8826904296875
2021-09-22 20:26:54.907231,-0.052734375,0.03662109375,1.01171875,1.461181640625,2.691650390625,7.88818359375
2021-09-22 20:26:54.916587,-0.0498046875,0.03369140625,1.01171875,1.4886474609375,2.6531982421875,7.88818359375
2021-09-22 20:26:54.926492,-0.04248046875,0.02978515625,1.0087890625,1.4996337890625,2.61474609375,7.8826904296875
2021-09-22 20:26:54.936382,-0.03955078125,0.0263671875,1.009765625,1.505126953125,2.581787109375,7.8717041015625
2021-09-22 20:26:54.946487,-0.0380859375,0.02392578125,1.0087890625,1.4996337890625,2.5433349609375,7.8662109375
2021-09-22 20:26:54.956539,-0.0341796875,0.021484375,1.01171875,1.4776611328125,2.5048828125,7.8607177734375
2021-09-22 20:26:54.966370,-0.029296875,0.01953125,1.013671875,1.4447021484375,2.4609375,7.8497314453125
2021-09-22 20:26:54.976454,-0.033203125,0.02294921875,1.0146484375,1.40625,2.4114990234375,7.84423828125
2021-09-22 20:26:54.986419,-0.03759765625,0.025390625,1.0185546875,1.3623046875,2.35107421875,7.822265625
2021-09-22 20:26:54.996254,-0.03515625,0.02197265625,1.00634765625,1.3128662109375,2.2906494140625,7.80029296875
2021-09-22 20:26:55.006159,-0.02734375,0.01904296875,1.0126953125,1.25244140625,2.2137451171875,7.7618408203125
2021-09-22 20:26:55.016330,-0.02392578125,0.0146484375,1.0087890625,1.1865234375,2.1258544921875,7.723388671875
2021-09-22 20:26:55.026332,-0.02490234375,0.0087890625,1.0146484375,1.109619140625,2.0269775390625,7.6849365234375
2021-09-22 20:26:55.036189,-0.0263671875,0.009765625,1.01708984375,1.021728515625,1.9390869140625,7.6519775390625
2021-09-22 20:26:55.046170,-0.02587890625,0.0087890625,1.01611328125,0.9228515625,1.856689453125,7.62451171875
2021-09-22 20:26:55.056120,-0.0224609375,0.01123046875,1.015625,0.8294677734375,1.7852783203125,7.5970458984375
2021-09-22 20:26:55.065997,-0.02197265625,0.01220703125,1.009765625,0.7305908203125,1.73583984375,7.569580078125
2021-09-22 20:26:55.075928,-0.0205078125,0.01708984375,0.98974609375,0.6536865234375,1.6973876953125,7.5421142578125
2021-09-22 20:26:55.086187,-0.02294921875,0.01708984375,0.9853515625,0.582275390625,1.6644287109375,7.5146484375
2021-09-22 20:26:55.095976,-0.02099609375,0.01123046875,0.98291015625,0.52734375,1.6314697265625,7.49267578125
2021-09-22 20:26:55.105910,-0.01708984375,0.005859375,0.986328125,0.4833984375,1.5875244140625,7.4761962890625
2021-09-22 20:26:55.116021,-0.02587890625,0.00830078125,0.9970703125,0.4559326171875,1.56005859375,7.4761962890625
2021-09-22 20:26:55.125894,-0.03759765625,0.0146484375,1.0029296875,0.4449462890625,1.5435791015625,7.4871826171875
2021-09-22 20:26:55.135758,-0.0458984375,0.017578125,1.00341796875,0.450439453125,1.549072265625,7.4981689453125
2021-09-22 20:26:55.145776,-0.0498046875,0.0224609375,1.0048828125,0.472412109375,1.571044921875,7.5146484375
2021-09-22 20:26:55.155817,-0.04150390625,0.02197265625,0.99560546875,0.5108642578125,1.5985107421875,7.525634765625
2021-09-22 20:26:55.165762,-0.03369140625,0.01806640625,0.98779296875,0.5548095703125,1.6204833984375,7.5311279296875
2021-09-22 20:26:55.175612,-0.033203125,0.0166015625,0.990234375,0.615234375,1.636962890625,7.5311279296875
2021-09-22 20:26:55.185556,-0.033203125,0.01318359375,0.99560546875,0.6756591796875,1.64794921875,7.53662109375
2021-09-22 20:26:55.195826,-0.03564453125,0.01220703125,1.00146484375,0.736083984375,1.658935546875,7.5421142578125
2021-09-22 20:26:55.205584,-0.0390625,0.0126953125,1.00244140625,0.7965087890625,1.669921875,7.547607421875
2021-09-22 20:26:55.215497,-0.041015625,0.0166015625,1.00537109375,0.8514404296875,1.69189453125,7.5531005859375
2021-09-22 20:26:55.225416,-0.04296875,0.02197265625,1.00341796875,0.911865234375,1.7193603515625,7.547607421875
2021-09-22 20:26:55.235473,-0.03759765625,0.0224609375,1.00390625,0.966796875,1.746826171875,7.53662109375
2021-09-22 20:26:55.245361,-0.03125,0.02392578125,0.99609375,1.021728515625,1.768798828125,7.5146484375
2021-09-22 20:26:55.255480,-0.0283203125,0.0224609375,0.9921875,1.07666015625,1.7742919921875,7.49267578125
2021-09-22 20:26:55.265413,-0.02587890625,0.01953125,0.99560546875,1.1260986328125,1.768798828125,7.470703125
2021-09-22 20:26:55.275421,-0.03173828125,0.0205078125,1.00244140625,1.1700439453125,1.7633056640625,7.44873046875
2021-09-22 20:26:55.285397,-0.037109375,0.02001953125,1.0029296875,1.2139892578125,1.7523193359375,7.4322509765625
2021-09-22 20:26:55.295202,-0.03759765625,0.01806640625,0.9970703125,1.2469482421875,1.7413330078125,7.415771484375
2021-09-22 20:26:55.305277,-0.0390625,0.01806640625,1.001953125,1.2744140625,1.73583984375,7.40478515625
2021-09-22 20:26:55.315205,-0.03369140625,0.0185546875,1.0048828125,1.29638671875,1.73583984375,7.393798828125
2021-09-22 20:26:55.325142,-0.03271484375,0.0224609375,1.00048828125,1.318359375,1.7413330078125,7.3773193359375
2021-09-22 20:26:55.335015,-0.03466796875,0.02197265625,0.99951171875,1.34033203125,1.7523193359375,7.3663330078125
2021-09-22 20:26:55.345205,-0.03271484375,0.02001953125,1.0029296875,1.3568115234375,1.7523193359375,7.349853515625
2021-09-22 20:26:55.355023,-0.02880859375,0.0146484375,1.0107421875,1.373291015625,1.7523193359375,7.3388671875
2021-09-22 20:26:55.364953,-0.03173828125,0.01318359375,1.01416015625,1.3787841796875,1.7413330078125,7.3388671875
2021-09-22 20:26:55.375009,-0.033203125,0.013671875,1.01171875,1.3897705078125,1.724853515625,7.3388671875
2021-09-22 20:26:55.384896,-0.03369140625,0.01318359375,1.01318359375,1.40625,1.7138671875,7.349853515625
2021-09-22 20:26:55.394990,-0.03271484375,0.0146484375,1.01416015625,1.417236328125,1.702880859375,7.3553466796875
2021-09-22 20:26:55.405525,-0.0302734375,0.01904296875,1.013671875,1.439208984375,1.7138671875,7.3663330078125
2021-09-22 20:26:55.414844,-0.02880859375,0.021484375,1.01708984375,1.461181640625,1.7413330078125,7.3773193359375
2021-09-22 20:26:55.424787,-0.02294921875,0.02099609375,1.013671875,1.483154296875,1.7852783203125,7.3828125
2021-09-22 20:26:55.434738,-0.0185546875,0.01806640625,1.0146484375,1.505126953125,1.834716796875,7.393798828125
2021-09-22 20:26:55.444618,-0.02099609375,0.01904296875,1.01318359375,1.527099609375,1.8896484375,7.40478515625
2021-09-22 20:26:55.454785,-0.025390625,0.01806640625,1.01513671875,1.549072265625,1.93359375,7.415771484375
2021-09-22 20:26:55.464678,-0.02880859375,0.02001953125,1.02001953125,1.5765380859375,1.9720458984375,7.4267578125
2021-09-22 20:26:55.474560,-0.03173828125,0.01953125,1.01953125,1.60400390625,2.0050048828125,7.4322509765625
2021-09-22 20:26:55.484451,-0.033203125,0.021484375,1.0244140625,1.6314697265625,2.0269775390625,7.4432373046875
2021-09-22 20:26:55.494519,-0.0302734375,0.02001953125,1.01416015625,1.6534423828125,2.04345703125,7.4432373046875
2021-09-22 20:26:55.504639,-0.03369140625,0.0224609375,1.01513671875,1.669921875,2.0599365234375,7.4432373046875
2021-09-22 20:26:55.514417,-0.029296875,0.02197265625,1.01171875,1.680908203125,2.0599365234375,7.44873046875
2021-09-22 20:26:55.524510,-0.02734375,0.0244140625,1.0205078125,1.6864013671875,2.054443359375,7.44873046875
2021-09-22 20:26:55.534466,-0.02978515625,0.02783203125,1.021484375,1.6864013671875,2.0489501953125,7.4542236328125
2021-09-22 20:26:55.544370,-0.03173828125,0.03076171875,1.01904296875,1.680908203125,2.0489501953125,7.459716796875
2021-09-22 20:26:55.554295,-0.03076171875,0.03369140625,1.01611328125,1.669921875,2.0489501953125,7.4652099609375
2021-09-22 20:26:55.564404,-0.03369140625,0.037109375,1.02001953125,1.658935546875,2.0599365234375,7.4652099609375
2021-09-22 20:26:55.574238,-0.033203125,0.04150390625,1.01025390625,1.64794921875,2.0709228515625,7.4652099609375
2021-09-22 20:26:55.584145,-0.03271484375,0.04052734375,1.00537109375,1.6424560546875,2.0819091796875,7.4652099609375
2021-09-22 20:26:55.594088,-0.0283203125,0.03515625,1.01318359375,1.636962890625,2.08740234375,7.4652099609375
2021-09-22 20:26:55.604150,-0.0283203125,0.03759765625,1.0068359375,1.6314697265625,2.0819091796875,7.4652099609375
2021-09-22 20:26:55.614237,-0.03271484375,0.033203125,1.01171875,1.6259765625,2.0654296875,7.4761962890625
2021-09-22 20:26:55.624150,-0.03857421875,0.0302734375,1.01171875,1.6204833984375,2.054443359375,7.4871826171875
2021-09-22 20:26:55.633999,-0.04736328125,0.03515625,1.01708984375,1.6259765625,2.054443359375,7.5091552734375
2021-09-22 20:26:55.644037,-0.05322265625,0.0390625,1.01025390625,1.6424560546875,2.0599365234375,7.525634765625
2021-09-22 20:26:55.653974,-0.046875,0.0380859375,1.00537109375,1.658935546875,2.076416015625,7.53662109375
2021-09-22 20:26:55.663890,-0.03955078125,0.0361328125,1.00439453125,1.6864013671875,2.08740234375,7.547607421875
2021-09-22 20:26:55.673762,-0.03466796875,0.033203125,0.9951171875,1.7193603515625,2.098388671875,7.547607421875
2021-09-22 20:26:55.684109,-0.033203125,0.02490234375,0.99658203125,1.746826171875,2.109375,7.55859375
2021-09-22 20:26:55.693866,-0.0400390625,0.025390625,1.00537109375,1.77978515625,2.1148681640625,7.569580078125
2021-09-22 20:26:55.703713,-0.04638671875,0.02685546875,1.017578125,1.8072509765625,2.1368408203125,7.591552734375
2021-09-22 20:26:55.713624,-0.0517578125,0.03076171875,1.01171875,1.834716796875,2.17529296875,7.613525390625
