time,acc_x,acc_y,acc_z,roll,pitch,yaw
2021-09-22 21:18:19.297054,0.01416015625,0.09423828125,0.98974609375,5.3997802734375,-0.626220703125,5.767822265625
2021-09-22 21:18:19.302078,0.013671875,0.09130859375,0.99169921875,5.3997802734375,-0.626220703125,5.767822265625
2021-09-22 21:18:19.311943,0.0126953125,0.09228515625,0.9921875,5.3997802734375,-0.6207275390625,5.767822265625
2021-09-22 21:18:19.321829,0.01025390625,0.09326171875,0.9931640625,5.394287109375,-0.6207275390625,5.767822265625
2021-09-22 21:18:19.331913,0.00927734375,0.09228515625,0.9912109375,5.3887939453125,-0.615234375,5.767822265625
2021-09-22 21:18:19.341852,0.0078125,0.09228515625,0.99267578125,5.372314453125,-0.604248046875,5.767822265625
2021-09-22 21:18:19.351754,0.00830078125,0.09228515625,0.98779296875,5.361328125,-0.604248046875,5.7733154296875
2021-09-22 21:18:19.361911,0.0078125,0.09130859375,0.99169921875,5.3448486328125,-0.5987548828125,5.77880859375
2021-09-22 21:18:19.371797,0.00830078125,0.09619140625,0.9921875,5.3338623046875,-0.5877685546875,5.77880859375
2021-09-22 21:18:19.381818,0.0107421875,0.09423828125,0.99267578125,5.328369140625,-0.5877685546875,5.7843017578125
2021-09-22 21:18:19.391610,0.01123046875,0.09375,0.98876953125,5.3228759765625,-0.582275390625,5.7843017578125
2021-09-22 21:18:19.401726,0.01171875,0.08984375,0.98974609375,5.3228759765625,-0.5767822265625,5.789794921875
2021-09-22 21:18:19.411622,0.01025390625,0.08544921875,0.984375,5.3228759765625,-0.5712890625,5.789794921875
2021-09-22 21:18:19.421488,0.00830078125,0.0869140625,0.98046875,5.328369140625,-0.5657958984375,5.789794921875
2021-09-22 21:18:19.431490,0.0048828125,0.09130859375,0.9833984375,5.33935546875,-0.5548095703125,5.789794921875
2021-09-22 21:18:19.441489,0.005859375,0.095703125,0.9873046875,5.350341796875,-0.54931640625,5.789794921875
2021-09-22 21:18:19.451472,0.00537109375,0.09912109375,0.98876953125,5.3668212890625,-0.5438232421875,5.7952880859375
2021-09-22 21:18:19.461354,0.0068359375,0.10302734375,0.98876953125,5.38330078125,-0.5438232421875,5.80078125
2021-09-22 21:18:19.471548,0.0078125,0.103515625,0.990234375,5.3997802734375,-0.538330078125,5.8062744140625
2021-09-22 21:18:19.481602,0.01171875,0.09912109375,0.98681640625,5.416259765625,-0.5438232421875,5.811767578125
2021-09-22 21:18:19.491364,0.015625,0.095703125,0.98974609375,5.4217529296875,-0.5438232421875,5.811767578125
2021-09-22 21:18:19.501111,0.013671875,0.09619140625,0.99169921875,5.4327392578125,-0.54931640625,5.811767578125
2021-09-22 21:18:19.511175,0.01220703125,0.09716796875,0.98974609375,5.438232421875,-0.54931640625,5.8062744140625
2021-09-22 21:18:19.521275,0.01123046875,0.0947265625,0.98974609375,5.4437255859375,-0.54931640625,5.80078125
2021-09-22 21:18:19.531146,0.0068359375,0.09326171875,0.9853515625,5.44921875,-0.54931640625,5.7952880859375
2021-09-22 21:18:19.541156,0.00244140625,0.09033203125,0.98291015625,5.44921875,-0.54931640625,5.789794921875
2021-09-22 21:18:19.551321,0.00341796875,0.09130859375,0.98388671875,5.44921875,-0.5548095703125,5.7843017578125
2021-09-22 21:18:19.561175,0.00341796875,0.09130859375,0.9794921875,5.4437255859375,-0.560302734375,5.7843017578125
2021-09-22 21:18:19.571023,0.0078125,0.09326171875,0.98095703125,5.4327392578125,-0.5712890625,5.7843017578125
2021-09-22 21:18:19.580891,0.0078125,0.0966796875,0.9814453125,5.42724609375,-0.5767822265625,5.7843017578125
2021-09-22 21:18:19.591054,0.00927734375,0.095703125,0.9833984375,5.416259765625,-0.5877685546875,5.77880859375
2021-09-22 21:18:19.600939,0.0087890625,0.09814453125,0.9853515625,5.4052734375,-0.5987548828125,5.7733154296875
2021-09-22 21:18:19.611090,0.00830078125,0.09814453125,0.984375,5.3997802734375,-0.6097412109375,5.767822265625
2021-09-22 21:18:19.621033,0.009765625,0.09716796875,0.98583984375,5.394287109375,-0.6207275390625,5.7568359375
2021-09-22 21:18:19.630972,0.01025390625,0.0966796875,0.98779296875,5.3887939453125,-0.626220703125,5.7513427734375
2021-09-22 21:18:19.640833,0.009765625,0.09619140625,0.98681640625,5.3887939453125,-0.6317138671875,5.73486328125
2021-09-22 21:18:19.650722,0.0087890625,0.09814453125,0.98193359375,5.3887939453125,-0.63720703125,5.723876953125
2021-09-22 21:18:19.660832,0.0078125,0.0927734375,0.9794921875,5.3887939453125,-0.6427001953125,5.712890625
2021-09-22 21:18:19.670740,0.00732421875,0.09228515625,0.982421875,5.38330078125,-0.648193359375,5.701904296875
2021-09-22 21:18:19.680616,0.00830078125,0.08984375,0.9833984375,5.372314453125,-0.6536865234375,5.69091796875
2021-09-22 21:18:19.690662,0.0078125,0.08935546875,0.984375,5.3668212890625,-0.6591796875,5.679931640625
2021-09-22 21:18:19.701164,0.0087890625,0.0927734375,0.984375,5.3558349609375,-0.670166015625,5.6689453125
2021-09-22 21:18:19.711216,0.00732421875,0.0947265625,0.98583984375,5.3558349609375,-0.6756591796875,5.657958984375
2021-09-22 21:18:19.721076,0.00732421875,0.09716796875,0.98779296875,5.361328125,-0.68115234375,5.6524658203125
2021-09-22 21:18:19.731000,0.00927734375,0.095703125,0.98828125,5.372314453125,-0.6866455078125,5.6414794921875
2021-09-22 21:18:19.741165,0.00927734375,0.09814453125,0.9892578125,5.3887939453125,-0.692138671875,5.6304931640625
2021-09-22 21:18:19.751092,0.00927734375,0.09814453125,0.98583984375,5.416259765625,-0.6976318359375,5.625
2021-09-22 21:18:19.761692,0.009765625,0.09765625,0.98388671875,5.4437255859375,-0.6976318359375,5.614013671875
2021-09-22 21:18:19.770865,0.01220703125,0.09912109375,0.98095703125,5.4766845703125,-0.703125,5.60302734375
2021-09-22 21:18:19.781013,0.013671875,0.09765625,0.9794921875,5.504150390625,-0.714111328125,5.5975341796875
2021-09-22 21:18:19.791019,0.013671875,0.0927734375,0.9833984375,5.526123046875,-0.7196044921875,5.5865478515625
2021-09-22 21:18:19.800822,0.01123046875,0.09033203125,0.98193359375,5.537109375,-0.7196044921875,5.5810546875
2021-09-22 21:18:19.811005,0.009765625,0.091796875,0.98486328125,5.548095703125,-0.72509765625,5.5755615234375
2021-09-22 21:18:19.820782,0.00830078125,0.095703125,0.984375,5.5535888671875,-0.72509765625,5.570068359375
2021-09-22 21:18:19.830782,0.00927734375,0.0966796875,0.9853515625,5.5535888671875,-0.7305908203125,5.570068359375
2021-09-22 21:18:19.840643,0.01220703125,0.0966796875,0.98876953125,5.548095703125,-0.736083984375,5.570068359375
2021-09-22 21:18:19.850613,0.01123046875,0.09716796875,0.98828125,5.5426025390625,-0.7415771484375,5.570068359375
2021-09-22 21:18:19.860642,0.01220703125,0.09619140625,0.9873046875,5.5426025390625,-0.7415771484375,5.5645751953125
2021-09-22 21:18:19.870606,0.01220703125,0.09619140625,0.99267578125,5.537109375,-0.7415771484375,5.5645751953125
2021-09-22 21:18:19.880403,0.01123046875,0.10107421875,0.9912109375,5.537109375,-0.7415771484375,5.55908203125
2021-09-22 21:18:19.890478,0.0146484375,0.1015625,0.9921875,5.537109375,-0.736083984375,5.5535888671875
2021-09-22 21:18:19.900392,0.0126953125,0.09765625,0.98876953125,5.537109375,-0.7305908203125,5.548095703125
2021-09-22 21:18:19.910267,0.0107421875,0.09716796875,0.984375,5.5316162109375,-0.72509765625,5.5426025390625
2021-09-22 21:18:19.920356,0.01123046875,0.09619140625,0.982421875,5.526123046875,-0.714111328125,5.537109375
2021-09-22 21:18:19.930169,0.013671875,0.0888671875,0.97998046875,5.51513671875,-0.7086181640625,5.5316162109375
2021-09-22 21:18:19.939926,0.01318359375,0.08447265625,0.978515625,5.4986572265625,-0.6976318359375,5.5206298828125
2021-09-22 21:18:19.949766,0.01416015625,0.0888671875,0.98095703125,5.4876708984375,-0.6866455078125,5.51513671875
2021-09-22 21:18:19.959636,0.01513671875,0.091796875,0.9794921875,5.4766845703125,-0.68115234375,5.504150390625
2021-09-22 21:18:19.969695,0.01220703125,0.0947265625,0.98193359375,5.47119140625,-0.670166015625,5.4986572265625
2021-09-22 21:18:19.979650,0.00830078125,0.09423828125,0.98681640625,5.460205078125,-0.6536865234375,5.4931640625
2021-09-22 21:18:19.989547,0.00732421875,0.0927734375,0.9873046875,5.4547119140625,-0.6427001953125,5.4876708984375
2021-09-22 21:18:19.999483,0.01171875,0.0927734375,0.99072265625,5.4547119140625,-0.63720703125,5.482177734375
2021-09-22 21:18:20.009636,0.01416015625,0.0927734375,0.9892578125,5.460205078125,-0.626220703125,5.482177734375
2021-09-22 21:18:20.019501,0.015625,0.09423828125,0.98974609375,5.47119140625,-0.6207275390625,5.4766845703125
2021-09-22 21:18:20.029410,0.0146484375,0.095703125,0.98828125,5.4931640625,-0.615234375,5.47119140625
2021-09-22 21:18:20.039290,0.013671875,0.0947265625,0.98583984375,5.51513671875,-0.6097412109375,5.4656982421875
2021-09-22 21:18:20.049397,0.013671875,0.095703125,0.986328125,5.5316162109375,-0.5987548828125,5.460205078125
2021-09-22 21:18:20.059265,0.01318359375,0.09765625,0.98583984375,5.5535888671875,-0.59326171875,5.44921875
2021-09-22 21:18:20.069352,0.013671875,0.09423828125,0.9873046875,5.5645751953125,-0.5877685546875,5.4437255859375
2021-09-22 21:18:20.079441,0.017578125,0.0888671875,0.990234375,5.5755615234375,-0.5877685546875,5.438232421875
2021-09-22 21:18:20.089366,0.01416015625,0.0849609375,0.99072265625,5.5755615234375,-0.5877685546875,5.42724609375
2021-09-22 21:18:20.099290,0.0126953125,0.08642578125,0.990234375,5.5810546875,-0.5877685546875,5.4217529296875
2021-09-22 21:18:20.109258,0.01123046875,0.0908203125,0.986328125,5.5810546875,-0.5877685546875,5.4107666015625
2021-09-22 21:18:20.119068,0.0146484375,0.09326171875,0.984375,5.5810546875,-0.59326171875,5.4052734375
2021-09-22 21:18:20.129084,0.017578125,0.0947265625,0.9873046875,5.570068359375,-0.5987548828125,5.3997802734375
2021-09-22 21:18:20.138990,0.01513671875,0.09033203125,0.98828125,5.548095703125,-0.6097412109375,5.3887939453125
2021-09-22 21:18:20.148934,0.01611328125,0.08447265625,0.98779296875,5.51513671875,-0.6207275390625,5.38330078125
2021-09-22 21:18:20.158962,0.01904296875,0.0810546875,0.98779296875,5.47119140625,-0.63720703125,5.372314453125
2021-09-22 21:18:20.168949,0.01904296875,0.08154296875,0.98974609375,5.4107666015625,-0.6536865234375,5.3668212890625
2021-09-22 21:18:20.178994,0.02197265625,0.0830078125,0.9912109375,5.33935546875,-0.68115234375,5.3668212890625
2021-09-22 21:18:20.188786,0.0205078125,0.087890625,0.99169921875,5.25146484375,-0.7086181640625,5.3668212890625
2021-09-22 21:18:20.198890,0.0234375,0.0849609375,0.994140625,5.1416015625,-0.7470703125,5.3778076171875
2021-09-22 21:18:20.208773,0.02294921875,0.08154296875,0.99853515625,5.009765625,-0.7855224609375,5.394287109375
2021-09-22 21:18:20.218676,0.02880859375,0.08154296875,0.998046875,4.866943359375,-0.8404541015625,5.416259765625
2021-09-22 21:18:20.228712,0.033203125,0.08349609375,0.99609375,4.713134765625,-0.8953857421875,5.4437255859375
2021-09-22 21:18:20.238718,0.0380859375,0.08544921875,1.00341796875,4.5538330078125,-0.955810546875,5.47119140625
2021-09-22 21:18:20.248650,0.03759765625,0.08203125,1.00390625,4.39453125,-1.021728515625,5.4986572265625
2021-09-22 21:18:20.259261,0.0380859375,0.07861328125,1.0068359375,4.24072265625,-1.087646484375,5.526123046875
2021-09-22 21:18:20.268440,0.03857421875,0.07666015625,1.00341796875,4.0924072265625,-1.153564453125,5.548095703125
2021-09-22 21:18:20.278648,0.0400390625,0.072265625,1.001953125,3.9605712890625,-1.2139892578125,5.570068359375
2021-09-22 21:18:20.288579,0.0419921875,0.06884765625,0.99951171875,3.8507080078125,-1.2799072265625,5.5865478515625
2021-09-22 21:18:20.298456,0.04296875,0.064453125,0.99365234375,3.768310546875,-1.3348388671875,5.60302734375
2021-09-22 21:18:20.308321,0.04052734375,0.06201171875,0.99072265625,3.71337890625,-1.3897705078125,5.6085205078125
2021-09-22 21:18:20.318454,0.0341796875,0.0615234375,0.98291015625,3.680419921875,-1.4337158203125,5.614013671875
2021-09-22 21:18:20.328339,0.0283203125,0.06005859375,0.97900390625,3.6749267578125,-1.47216796875,5.614013671875
2021-09-22 21:18:20.338254,0.02783203125,0.05908203125,0.97802734375,3.69140625,-1.5106201171875,5.614013671875
2021-09-22 21:18:20.348772,0.025390625,0.05517578125,0.9755859375,3.724365234375,-1.5380859375,5.6195068359375
2021-09-22 21:18:20.358343,0.025390625,0.0546875,0.9697265625,3.7738037109375,-1.571044921875,5.6195068359375
2021-09-22 21:18:20.368172,0.02734375,0.0615234375,0.9697265625,3.834228515625,-1.5985107421875,5.6195068359375
2021-09-22 21:18:20.378084,0.02685546875,0.0673828125,0.96533203125,3.9056396484375,-1.6259765625,5.625
2021-09-22 21:18:20.388046,0.029296875,0.0712890625,0.9697265625,3.97705078125,-1.6534423828125,5.6304931640625
2021-09-22 21:18:20.398153,0.02783203125,0.07470703125,0.97265625,4.0484619140625,-1.680908203125,5.635986328125
2021-09-22 21:18:20.408130,0.02392578125,0.07421875,0.974609375,4.10888671875,-1.702880859375,5.64697265625
2021-09-22 21:18:20.418310,0.02197265625,0.06201171875,0.97509765625,4.1583251953125,-1.724853515625,5.6524658203125
2021-09-22 21:18:20.427925,0.021484375,0.06103515625,0.97216796875,4.19677734375,-1.746826171875,5.6634521484375
2021-09-22 21:18:20.438024,0.0234375,0.0634765625,0.97314453125,4.2242431640625,-1.768798828125,5.679931640625
2021-09-22 21:18:20.447917,0.02783203125,0.0654296875,0.97021484375,4.24072265625,-1.7962646484375,5.6964111328125
2021-09-22 21:18:20.457861,0.0302734375,0.06787109375,0.9755859375,4.2352294921875,-1.82373046875,5.7183837890625
2021-09-22 21:18:20.467694,0.03173828125,0.07421875,0.97265625,4.2132568359375,-1.856689453125,5.745849609375
2021-09-22 21:18:20.477942,0.03662109375,0.078125,0.9794921875,4.1693115234375,-1.8896484375,5.77880859375
2021-09-22 21:18:20.487852,0.03759765625,0.0791015625,0.984375,4.10888671875,-1.922607421875,5.811767578125
2021-09-22 21:18:20.497717,0.037109375,0.08203125,0.9833984375,4.031982421875,-1.95556640625,5.8447265625
2021-09-22 21:18:20.507628,0.0361328125,0.08154296875,0.98193359375,3.9385986328125,-1.988525390625,5.8831787109375
2021-09-22 21:18:20.517699,0.037109375,0.078125,0.98046875,3.834228515625,-2.021484375,5.921630859375
2021-09-22 21:18:20.527629,0.04052734375,0.068359375,0.9814453125,3.724365234375,-2.0489501953125,5.965576171875
2021-09-22 21:18:20.537491,0.04296875,0.06494140625,0.97900390625,3.6199951171875,-2.0819091796875,6.0040283203125
2021-09-22 21:18:20.547985,0.041015625,0.0615234375,0.97802734375,3.515625,-2.109375,6.0479736328125
2021-09-22 21:18:20.557640,0.0380859375,0.060546875,0.9755859375,3.4222412109375,-2.1258544921875,6.0919189453125
2021-09-22 21:18:20.567495,0.037109375,0.0595703125,0.97607421875,3.3453369140625,-2.1478271484375,6.141357421875
2021-09-22 21:18:20.577381,0.03515625,0.05615234375,0.9755859375,3.27392578125,-2.1588134765625,6.1907958984375
2021-09-22 21:18:20.587499,0.03759765625,0.0517578125,0.9765625,3.218994140625,-2.1697998046875,6.240234375
2021-09-22 21:18:20.597384,0.0361328125,0.05029296875,0.97412109375,3.18603515625,-2.1807861328125,6.2896728515625
2021-09-22 21:18:20.607386,0.03662109375,0.0537109375,0.97509765625,3.1695556640625,-2.186279296875,6.339111328125
2021-09-22 21:18:20.617321,0.03515625,0.0556640625,0.98046875,3.175048828125,-2.186279296875,6.39404296875
2021-09-22 21:18:20.627418,0.033203125,0.0546875,0.98583984375,3.2025146484375,-2.1807861328125,6.448974609375
2021-09-22 21:18:20.637278,0.03271484375,0.0546875,0.9853515625,3.2464599609375,-2.1697998046875,6.50390625
2021-09-22 21:18:20.647185,0.0341796875,0.060546875,0.9990234375,3.3123779296875,-2.1588134765625,6.5533447265625
2021-09-22 21:18:20.657270,0.03369140625,0.0654296875,1.0,3.4002685546875,-2.1368408203125,6.6082763671875
2021-09-22 21:18:20.667239,0.0361328125,0.06298828125,1.001953125,3.4991455078125,-2.109375,6.6522216796875
2021-09-22 21:18:20.677214,0.03466796875,0.064453125,1.0009765625,3.603515625,-2.0709228515625,6.6961669921875
2021-09-22 21:18:20.687636,0.03369140625,0.0634765625,1.0,3.7078857421875,-2.032470703125,6.734619140625
2021-09-22 21:18:20.697648,0.037109375,0.06201171875,0.99560546875,3.80126953125,-1.9830322265625,6.7730712890625
2021-09-22 21:18:20.707506,0.03515625,0.06201171875,0.998046875,3.88916015625,-1.93359375,6.8060302734375
2021-09-22 21:18:20.717394,0.03466796875,0.0693359375,1.005859375,3.9715576171875,-1.878662109375,6.8389892578125
2021-09-22 21:18:20.727452,0.03369140625,0.0673828125,1.00390625,4.0374755859375,-1.82373046875,6.8719482421875
2021-09-22 21:18:20.737592,0.03173828125,0.068359375,1.00830078125,4.097900390625,-1.7633056640625,6.910400390625
2021-09-22 21:18:20.747476,0.0302734375,0.072265625,1.005859375,4.1363525390625,-1.702880859375,6.943359375
2021-09-22 21:18:20.758036,0.02880859375,0.0673828125,1.0048828125,4.163818359375,-1.6424560546875,6.9818115234375
2021-09-22 21:18:20.767271,0.02685546875,0.06640625,1.00830078125,4.1693115234375,-1.58203125,7.0257568359375
2021-09-22 21:18:20.777259,0.02392578125,0.0673828125,1.0048828125,4.1583251953125,-1.5216064453125,7.0751953125
2021-09-22 21:18:20.787243,0.02099609375,0.06689453125,1.0087890625,4.1363525390625,-1.461181640625,7.130126953125
2021-09-22 21:18:20.797182,0.02197265625,0.06591796875,1.00927734375,4.1033935546875,-1.4007568359375,7.18505859375
2021-09-22 21:18:20.807066,0.02392578125,0.0625,1.00439453125,4.0594482421875,-1.3458251953125,7.2454833984375
2021-09-22 21:18:20.817213,0.02294921875,0.06005859375,1.00537109375,4.010009765625,-1.285400390625,7.305908203125
2021-09-22 21:18:20.827213,0.0185546875,0.06494140625,1.00244140625,3.966064453125,-1.23046875,7.371826171875
2021-09-22 21:18:20.837195,0.0166015625,0.06640625,0.9912109375,3.9166259765625,-1.1700439453125,7.4432373046875
2021-09-22 21:18:20.847010,0.01708984375,0.06591796875,0.990234375,3.8671875,-1.12060546875,7.5146484375
2021-09-22 21:18:20.857129,0.015625,0.06640625,0.9873046875,3.8177490234375,-1.065673828125,7.591552734375
2021-09-22 21:18:20.866982,0.0146484375,0.06103515625,0.98779296875,3.768310546875,-1.0162353515625,7.66845703125
2021-09-22 21:18:20.876851,0.01611328125,0.0576171875,0.99267578125,3.724365234375,-0.9722900390625,7.745361328125
2021-09-22 21:18:20.886853,0.017578125,0.0615234375,0.9931640625,3.69140625,-0.9283447265625,7.8167724609375
2021-09-22 21:18:20.897034,0.0166015625,0.06591796875,0.99365234375,3.6749267578125,-0.8843994140625,7.8936767578125
2021-09-22 21:18:20.907088,0.01416015625,0.06884765625,0.99755859375,3.6749267578125,-0.8404541015625,7.9595947265625
2021-09-22 21:18:20.917033,0.0087890625,0.064453125,0.994140625,3.69140625,-0.791015625,8.0255126953125
2021-09-22 21:18:20.926769,0.0048828125,0.06201171875,0.99658203125,3.71337890625,-0.7470703125,8.0859375
2021-09-22 21:18:20.936848,0.00244140625,0.060546875,0.99072265625,3.746337890625,-0.6976318359375,8.1463623046875
2021-09-22 21:18:20.946757,0.00244140625,0.06103515625,0.9873046875,3.790283203125,-0.6536865234375,8.2012939453125
2021-09-22 21:18:20.956598,0.00390625,0.06494140625,0.986328125,3.8287353515625,-0.615234375,8.250732421875
2021-09-22 21:18:20.966809,0.0068359375,0.06982421875,0.9873046875,3.8726806640625,-0.5767822265625,8.3056640625
2021-09-22 21:18:20.976613,0.00830078125,0.07373046875,0.99072265625,3.9111328125,-0.5438232421875,8.349609375
2021-09-22 21:18:20.986604,0.00390625,0.07275390625,0.99169921875,3.9385986328125,-0.5108642578125,8.3990478515625
2021-09-22 21:18:20.996427,0.0048828125,0.0673828125,0.99560546875,3.955078125,-0.4833984375,8.4429931640625
2021-09-22 21:18:21.006562,0.0029296875,0.06884765625,0.994140625,3.966064453125,-0.4559326171875,8.4814453125
2021-09-22 21:18:21.016486,0.00146484375,0.07080078125,0.990234375,3.966064453125,-0.428466796875,8.5198974609375
2021-09-22 21:18:21.026368,-0.001953125,0.07421875,0.99072265625,3.966064453125,-0.4010009765625,8.5528564453125
2021-09-22 21:18:21.036495,-0.00537109375,0.078125,0.98486328125,3.955078125,-0.37353515625,8.5858154296875
2021-09-22 21:18:21.046471,-0.005859375,0.0810546875,0.98828125,3.93310546875,-0.3515625,8.6187744140625
2021-09-22 21:18:21.056382,-0.0029296875,0.07763671875,0.98974609375,3.8946533203125,-0.3350830078125,8.6517333984375
2021-09-22 21:18:21.066298,-0.00244140625,0.0732421875,0.9912109375,3.84521484375,-0.318603515625,8.6846923828125
2021-09-22 21:18:21.076399,-0.00048828125,0.06884765625,0.9921875,3.7847900390625,-0.3131103515625,8.712158203125
2021-09-22 21:18:21.086195,0.00390625,0.0703125,0.9931640625,3.7298583984375,-0.3021240234375,8.7396240234375
2021-09-22 21:18:21.096105,0.0078125,0.07080078125,0.9951171875,3.680419921875,-0.3021240234375,8.7615966796875
2021-09-22 21:18:21.105974,0.00537109375,0.07080078125,0.990234375,3.6309814453125,-0.2911376953125,8.778076171875
2021-09-22 21:18:21.116142,0.0009765625,0.07177734375,0.9892578125,3.5870361328125,-0.2801513671875,8.7945556640625
2021-09-22 21:18:21.126324,-0.0029296875,0.07177734375,0.98486328125,3.548583984375,-0.2691650390625,8.8055419921875
2021-09-22 21:18:21.136152,-0.00390625,0.06689453125,0.98291015625,3.4991455078125,-0.252685546875,8.8165283203125
2021-09-22 21:18:21.146243,-0.00341796875,0.05859375,0.98193359375,3.4442138671875,-0.24169921875,8.8275146484375
2021-09-22 21:18:21.156189,-0.0048828125,0.05224609375,0.9833984375,3.3892822265625,-0.230712890625,8.843994140625
2021-09-22 21:18:21.165944,-0.00244140625,0.0517578125,0.98583984375,3.3453369140625,-0.2197265625,8.8604736328125
2021-09-22 21:18:21.176023,-0.00439453125,0.0546875,0.98974609375,3.3233642578125,-0.2032470703125,8.876953125
2021-09-22 21:18:21.185971,-0.001953125,0.05908203125,0.9921875,3.3233642578125,-0.186767578125,8.887939453125
2021-09-22 21:18:21.195837,0.0,0.064453125,0.99267578125,3.3453369140625,-0.1702880859375,8.89892578125
2021-09-22 21:18:21.205043,0.00146484375,0.0634765625,0.9951171875,3.3837890625,-0.15380859375,8.909912109375
2021-09-22 21:18:21.215906,-0.0029296875,0.06201171875,0.99072265625,3.4332275390625,-0.1373291015625,8.9154052734375
2021-09-22 21:18:21.225796,-0.0029296875,0.0556640625,0.98876953125,3.4771728515625,-0.1153564453125,8.9263916015625
2021-09-22 21:18:21.235727,-0.005859375,0.05419921875,0.98828125,3.5211181640625,-0.0933837890625,8.931884765625
2021-09-22 21:18:21.245669,-0.00390625,0.05712890625,0.99072265625,3.5650634765625,-0.0714111328125,8.94287109375
2021-09-22 21:18:21.256183,0.0009765625,0.0546875,0.98876953125,3.592529296875,-0.0494384765625,8.9483642578125
2021-09-22 21:18:21.265669,0.001953125,0.04931640625,0.9873046875,3.614501953125,-0.032958984375,8.953857421875
2021-09-22 21:18:21.275593,-0.001953125,0.05078125,0.9873046875,3.62548828125,-0.0164794921875,8.9593505859375
2021-09-22 21:18:21.285490,-0.001953125,0.0546875,0.986328125,3.6309814453125,0.0,8.96484375
2021-09-22 21:18:21.295580,-0.00390625,0.06494140625,0.9951171875,3.636474609375,0.0164794921875,8.9703369140625
2021-09-22 21:18:21.305183,-0.0068359375,0.0712890625,0.990234375,3.636474609375,0.032958984375,8.975830078125
2021-09-22 21:18:21.315495,-0.0068359375,0.06884765625,0.99267578125,3.62548828125,0.0494384765625,8.98681640625
2021-09-22 21:18:21.325462,-0.0068359375,0.06884765625,0.99755859375,3.6090087890625,0.06591796875,8.997802734375
2021-09-22 21:18:21.335531,-0.001953125,0.06396484375,0.99609375,3.5870361328125,0.076904296875,9.0087890625
2021-09-22 21:18:21.345599,0.00537109375,0.05712890625,0.9970703125,3.5595703125,0.087890625,9.0142822265625
2021-09-22 21:18:21.355550,0.0029296875,0.0595703125,0.9970703125,3.53759765625,0.098876953125,9.019775390625
2021-09-22 21:18:21.365598,-0.001953125,0.056640625,0.99365234375,3.515625,0.120849609375,9.019775390625
2021-09-22 21:18:21.375319,-0.005859375,0.05908203125,0.98681640625,3.4991455078125,0.142822265625,9.0142822265625
2021-09-22 21:18:21.385217,-0.0107421875,0.06201171875,0.98193359375,3.482666015625,0.164794921875,9.0142822265625
2021-09-22 21:18:21.395100,-0.00927734375,0.064453125,0.978515625,3.460693359375,0.186767578125,9.0142822265625
2021-09-22 21:18:21.405275,-0.0087890625,0.06201171875,0.97802734375,3.4332275390625,0.208740234375,9.0142822265625
2021-09-22 21:18:21.415151,-0.00634765625,0.05859375,0.9765625,3.394775390625,0.2252197265625,9.019775390625
2021-09-22 21:18:21.425021,-0.00537109375,0.05908203125,0.98095703125,3.3563232421875,0.24169921875,9.0252685546875
2021-09-22 21:18:21.434951,-0.0068359375,0.05517578125,0.98095703125,3.31787109375,0.2581787109375,9.0252685546875
2021-09-22 21:18:21.445146,-0.00927734375,0.05224609375,0.986328125,3.284912109375,0.274658203125,9.03076171875
2021-09-22 21:18:21.455166,-0.0087890625,0.05419921875,0.986328125,3.2684326171875,0.296630859375,9.03076171875
2021-09-22 21:18:21.465015,-0.0078125,0.05859375,0.98388671875,3.2574462890625,0.3131103515625,9.0362548828125
2021-09-22 21:18:21.474931,-0.00634765625,0.0654296875,0.98095703125,3.2574462890625,0.3240966796875,9.041748046875
2021-09-22 21:18:21.484905,-0.0068359375,0.06640625,0.97705078125,3.262939453125,0.3350830078125,9.052734375
2021-09-22 21:18:21.494944,-0.00341796875,0.06494140625,0.98193359375,3.262939453125,0.3460693359375,9.063720703125
2021-09-22 21:18:21.504909,-0.00390625,0.0615234375,0.98583984375,3.262939453125,0.3570556640625,9.0802001953125
2021-09-22 21:18:21.515007,-0.00341796875,0.0615234375,0.9912109375,3.2794189453125,0.362548828125,9.0966796875
2021-09-22 21:18:21.524943,-0.001953125,0.0615234375,0.9951171875,3.306884765625,0.37353515625,9.107666015625
2021-09-22 21:18:21.534898,-0.00537109375,0.0615234375,0.99072265625,3.350830078125,0.384521484375,9.11865234375
2021-09-22 21:18:21.544621,-0.0078125,0.0625,0.98974609375,3.4002685546875,0.406494140625,9.129638671875
2021-09-22 21:18:21.554463,-0.00927734375,0.06298828125,0.98779296875,3.4552001953125,0.4229736328125,9.1351318359375
2021-09-22 21:18:21.564710,-0.01318359375,0.0634765625,0.9853515625,3.504638671875,0.439453125,9.1461181640625
2021-09-22 21:18:21.574869,-0.0126953125,0.06005859375,0.982421875,3.5430908203125,0.46142578125,9.16259765625
2021-09-22 21:18:21.584529,-0.01171875,0.0537109375,0.98193359375,3.5650634765625,0.472412109375,9.1790771484375
2021-09-22 21:18:21.594683,-0.0107421875,0.052734375,0.98388671875,3.5760498046875,0.4888916015625,9.195556640625
2021-09-22 21:18:21.604639,-0.0087890625,0.05419921875,0.9853515625,3.5760498046875,0.494384765625,9.2120361328125
2021-09-22 21:18:21.614410,-0.01171875,0.05859375,0.9873046875,3.5760498046875,0.5108642578125,9.228515625
2021-09-22 21:18:21.624436,-0.01416015625,0.0634765625,0.98486328125,3.570556640625,0.5218505859375,9.2449951171875
2021-09-22 21:18:21.634399,-0.01318359375,0.06591796875,0.98876953125,3.5650634765625,0.5328369140625,9.261474609375
2021-09-22 21:18:21.644476,-0.01025390625,0.06689453125,0.98974609375,3.5540771484375,0.5438232421875,9.2779541015625
2021-09-22 21:18:21.654455,-0.009765625,0.0634765625,0.9892578125,3.53759765625,0.560302734375,9.2889404296875
2021-09-22 21:18:21.664370,-0.0048828125,0.0625,0.99365234375,3.526611328125,0.5712890625,9.2999267578125
2021-09-22 21:18:21.674483,-0.00830078125,0.06005859375,0.98828125,3.515625,0.5877685546875,9.305419921875
2021-09-22 21:18:21.684252,-0.00927734375,0.05810546875,0.9873046875,3.5101318359375,0.604248046875,9.305419921875
2021-09-22 21:18:21.694108,-0.01123046875,0.0576171875,0.9892578125,3.515625,0.6317138671875,9.305419921875
2021-09-22 21:18:21.704283,-0.01416015625,0.060546875,0.99462890625,3.5321044921875,0.6591796875,9.2999267578125
2021-09-22 21:18:21.714284,-0.013671875,0.0625,0.99462890625,3.548583984375,0.6866455078125,9.2889404296875
2021-09-22 21:18:21.724190,-0.015625,0.0615234375,0.9951171875,3.5595703125,0.7196044921875,9.283447265625
2021-09-22 21:18:21.733890,-0.01611328125,0.06396484375,0.99560546875,3.570556640625,0.7470703125,9.2779541015625
2021-09-22 21:18:21.743743,-0.0126953125,0.0634765625,0.99267578125,3.5595703125,0.7745361328125,9.2724609375
2021-09-22 21:18:21.754269,-0.013671875,0.05859375,0.9873046875,3.53759765625,0.7965087890625,9.2724609375
2021-09-22 21:18:21.763672,-0.013671875,0.052734375,0.9931640625,3.49365234375,0.8184814453125,9.2779541015625
2021-09-22 21:18:21.773543,-0.01513671875,0.05029296875,0.99560546875,3.4442138671875,0.8349609375,9.283447265625
2021-09-22 21:18:21.783522,-0.015625,0.04931640625,0.9990234375,3.3837890625,0.8514404296875,9.2889404296875
2021-09-22 21:18:21.793398,-0.0126953125,0.0517578125,1.00146484375,3.328857421875,0.867919921875,9.2999267578125
2021-09-22 21:18:21.803354,-0.0146484375,0.05419921875,0.998046875,3.27392578125,0.87890625,9.31640625
2021-09-22 21:18:21.813276,-0.01806640625,0.05615234375,0.99658203125,3.218994140625,0.889892578125,9.3328857421875
2021-09-22 21:18:21.823312,-0.02099609375,0.05419921875,0.98779296875,3.1585693359375,0.90087890625,9.3548583984375
2021-09-22 21:18:21.833235,-0.01806640625,0.052734375,0.98828125,3.09814453125,0.9063720703125,9.38232421875
2021-09-22 21:18:21.843323,-0.01123046875,0.05126953125,0.99169921875,3.0377197265625,0.9063720703125,9.4097900390625
2021-09-22 21:18:21.853316,-0.0078125,0.04931640625,0.9951171875,2.9827880859375,0.9063720703125,9.437255859375
2021-09-22 21:18:21.863213,-0.00634765625,0.046875,0.9951171875,2.933349609375,0.90087890625,9.4647216796875
2021-09-22 21:18:21.873134,-0.01025390625,0.0419921875,0.99267578125,2.8948974609375,0.90087890625,9.4921875
2021-09-22 21:18:21.883017,-0.01318359375,0.04296875,0.9970703125,2.8619384765625,0.9063720703125,9.51416015625
2021-09-22 21:18:21.893116,-0.01708984375,0.04248046875,0.99169921875,2.845458984375,0.911865234375,9.5416259765625
2021-09-22 21:18:21.903041,-0.02197265625,0.0458984375,0.986328125,2.8399658203125,0.9173583984375,9.5635986328125
2021-09-22 21:18:21.913180,-0.0205078125,0.0498046875,0.98779296875,2.83447265625,0.9283447265625,9.591064453125
2021-09-22 21:18:21.923390,-0.0185546875,0.04833984375,0.98974609375,2.83447265625,0.933837890625,9.613037109375
2021-09-22 21:18:21.933507,-0.01123046875,0.041015625,0.98974609375,2.8289794921875,0.933837890625,9.635009765625
2021-09-22 21:18:21.943436,-0.01123046875,0.037109375,0.9912109375,2.823486328125,0.9393310546875,9.6514892578125
2021-09-22 21:18:21.953280,-0.01416015625,0.04345703125,0.98974609375,2.823486328125,0.94482421875,9.66796875
2021-09-22 21:18:21.963398,-0.01220703125,0.0498046875,0.99462890625,2.8289794921875,0.9503173828125,9.678955078125
2021-09-22 21:18:21.973240,-0.0107421875,0.05078125,0.99462890625,2.83447265625,0.955810546875,9.6844482421875
2021-09-22 21:18:21.983233,-0.0146484375,0.0498046875,0.99169921875,2.83447265625,0.955810546875,9.6954345703125
2021-09-22 21:18:21.993105,-0.0166015625,0.05029296875,0.99609375,2.83447265625,0.9613037109375,9.700927734375
2021-09-22 21:18:22.003208,-0.02001953125,0.05029296875,0.994140625,2.8399658203125,0.966796875,9.700927734375
2021-09-22 21:18:22.013033,-0.01708984375,0.04541015625,0.998046875,2.8399658203125,0.966796875,9.7064208984375
2021-09-22 21:18:22.022998,-0.01220703125,0.04541015625,0.99609375,2.8399658203125,0.966796875,9.7064208984375
2021-09-22 21:18:22.032692,-0.0126953125,0.04296875,0.9970703125,2.8399658203125,0.9613037109375,9.7064208984375
2021-09-22 21:18:22.043054,-0.0107421875,0.041015625,0.99658203125,2.8399658203125,0.955810546875,9.700927734375
2021-09-22 21:18:22.052938,-0.01220703125,0.0380859375,0.9951171875,2.8399658203125,0.9503173828125,9.68994140625
2021-09-22 21:18:22.062932,-0.01513671875,0.04296875,0.9931640625,2.8399658203125,0.94482421875,9.678955078125
2021-09-22 21:18:22.072732,-0.01513671875,0.05322265625,0.994140625,2.845458984375,0.933837890625,9.6624755859375
2021-09-22 21:18:22.082826,-0.015625,0.052734375,0.994140625,2.8399658203125,0.9228515625,9.6514892578125
2021-09-22 21:18:22.092766,-0.009765625,0.04833984375,0.9951171875,2.823486328125,0.9063720703125,9.6405029296875
2021-09-22 21:18:22.102852,-0.00830078125,0.04541015625,0.9990234375,2.801513671875,0.8843994140625,9.6295166015625
2021-09-22 21:18:22.112884,-0.005859375,0.0439453125,0.994140625,2.7740478515625,0.85693359375,9.6185302734375
2021-09-22 21:18:22.122866,-0.00390625,0.04541015625,0.994140625,2.7520751953125,0.8294677734375,9.60205078125
2021-09-22 21:18:22.132840,-0.0087890625,0.04833984375,0.9912109375,2.7301025390625,0.802001953125,9.5855712890625
2021-09-22 21:18:22.142571,-0.00927734375,0.048828125,0.99072265625,2.70263671875,0.76904296875,9.569091796875
2021-09-22 21:18:22.152498,-0.0107421875,0.04443359375,0.98876953125,2.6751708984375,0.736083984375,9.55810546875
2021-09-22 21:18:22.162663,-0.0087890625,0.0390625,0.986328125,2.63671875,0.6976318359375,9.5526123046875
2021-09-22 21:18:22.172488,-0.0068359375,0.0341796875,0.98681640625,2.5927734375,0.6536865234375,9.547119140625
2021-09-22 21:18:22.182400,-0.00732421875,0.0341796875,0.98193359375,2.5543212890625,0.6097412109375,9.547119140625
2021-09-22 21:18:22.192311,-0.0087890625,0.03857421875,0.98095703125,2.5213623046875,0.5657958984375,9.547119140625
2021-09-22 21:18:22.202333,-0.0078125,0.04833984375,0.978515625,2.493896484375,0.516357421875,9.547119140625
2021-09-22 21:18:22.212222,-0.0068359375,0.05126953125,0.98046875,2.4664306640625,0.4669189453125,9.55810546875
2021-09-22 21:18:22.222309,-0.00341796875,0.0537109375,0.98095703125,2.43896484375,0.41748046875,9.5635986328125
2021-09-22 21:18:22.232370,-0.0048828125,0.05078125,0.98095703125,2.4114990234375,0.3680419921875,9.569091796875
2021-09-22 21:18:22.242345,-0.005859375,0.0419921875,0.98095703125,2.3895263671875,0.3240966796875,9.580078125
2021-09-22 21:18:22.252836,-0.0048828125,0.04052734375,0.98291015625,2.3785400390625,0.2801513671875,9.580078125
2021-09-22 21:18:22.262103,-0.00634765625,0.041015625,0.98388671875,2.3785400390625,0.24169921875,9.5855712890625
2021-09-22 21:18:22.272213,-0.00830078125,0.037109375,0.978515625,2.384033203125,0.2142333984375,9.580078125
2021-09-22 21:18:22.282029,-0.01025390625,0.03466796875,0.98095703125,2.3895263671875,0.186767578125,9.580078125
2021-09-22 21:18:22.291997,-0.0126953125,0.03564453125,0.97705078125,2.3895263671875,0.164794921875,9.5745849609375
2021-09-22 21:18:22.302236,-0.00830078125,0.037109375,0.97607421875,2.3785400390625,0.1483154296875,9.569091796875
2021-09-22 21:18:22.312223,-0.00634765625,0.03564453125,0.97900390625,2.3565673828125,0.1318359375,9.5635986328125
2021-09-22 21:18:22.322198,-0.00244140625,0.03759765625,0.98095703125,2.3236083984375,0.120849609375,9.5526123046875
2021-09-22 21:18:22.331995,0.00048828125,0.03564453125,0.9833984375,2.28515625,0.10986328125,9.5416259765625
2021-09-22 21:18:22.342033,0.0029296875,0.037109375,0.98193359375,2.2412109375,0.1043701171875,9.525146484375
2021-09-22 21:18:22.351948,0.00146484375,0.044921875,0.9873046875,2.2027587890625,0.1043701171875,9.503173828125
2021-09-22 21:18:22.361819,-0.0009765625,0.0439453125,0.97900390625,2.1588134765625,0.10986328125,9.481201171875
2021-09-22 21:18:22.371691,-0.00341796875,0.04296875,0.98681640625,2.1148681640625,0.120849609375,9.47021484375
2021-09-22 21:18:22.381908,-0.00634765625,0.04296875,0.984375,2.0654296875,0.1318359375,9.459228515625
2021-09-22 21:18:22.391673,-0.005859375,0.041015625,0.9892578125,2.0159912109375,0.142822265625,9.4537353515625
2021-09-22 21:18:22.401710,-0.001953125,0.03955078125,0.98876953125,1.9720458984375,0.15380859375,9.4537353515625
2021-09-22 21:18:22.411613,-0.00537109375,0.0400390625,0.98828125,1.93359375,0.1702880859375,9.4537353515625
2021-09-22 21:18:22.421792,-0.0009765625,0.03955078125,0.990234375,1.9061279296875,0.186767578125,9.459228515625
2021-09-22 21:18:22.431628,0.00048828125,0.03564453125,0.98876953125,1.8896484375,0.2032470703125,9.4647216796875
2021-09-22 21:18:22.441544,-0.00048828125,0.03173828125,0.9873046875,1.8896484375,0.2252197265625,9.47021484375
2021-09-22 21:18:22.451523,-0.00537109375,0.03564453125,0.98583984375,1.91162109375,0.2581787109375,9.481201171875
2021-09-22 21:18:22.461560,-0.00927734375,0.04150390625,0.98388671875,1.9500732421875,0.28564453125,9.4866943359375
2021-09-22 21:18:22.471411,-0.01123046875,0.04150390625,0.9853515625,2.010498046875,0.318603515625,9.503173828125
2021-09-22 21:18:22.481374,-0.0107421875,0.04248046875,0.9921875,2.0819091796875,0.3570556640625,9.5196533203125
2021-09-22 21:18:22.491305,-0.01171875,0.0419921875,0.99072265625,2.1697998046875,0.3900146484375,9.5361328125
2021-09-22 21:18:22.501441,-0.0107421875,0.03955078125,0.98974609375,2.2686767578125,0.4229736328125,9.5526123046875
2021-09-22 21:18:22.511211,-0.0068359375,0.0419921875,0.99072265625,2.3675537109375,0.46142578125,9.5745849609375
2021-09-22 21:18:22.521072,-0.0068359375,0.04345703125,0.98681640625,2.4664306640625,0.494384765625,9.591064453125
2021-09-22 21:18:22.530889,-0.00732421875,0.0400390625,0.98779296875,2.559814453125,0.52734375,9.613037109375
2021-09-22 21:18:22.540804,-0.0107421875,0.04345703125,0.9931640625,2.6422119140625,0.560302734375,9.6295166015625
2021-09-22 21:18:22.550899,-0.00927734375,0.044921875,0.99658203125,2.7191162109375,0.5987548828125,9.64599609375
2021-09-22 21:18:22.560809,-0.009765625,0.04248046875,0.9970703125,2.779541015625,0.6317138671875,9.656982421875
2021-09-22 21:18:22.570815,-0.01123046875,0.04541015625,0.998046875,2.8289794921875,0.6646728515625,9.66796875
2021-09-22 21:18:22.580716,-0.0126953125,0.05078125,0.99560546875,2.867431640625,0.692138671875,9.678955078125
2021-09-22 21:18:22.590763,-0.01318359375,0.05224609375,0.99658203125,2.8839111328125,0.72509765625,9.6844482421875
2021-09-22 21:18:22.600857,-0.01123046875,0.05224609375,0.99658203125,2.889404296875,0.7470703125,9.68994140625
2021-09-22 21:18:22.610704,-0.013671875,0.0517578125,0.99755859375,2.87841796875,0.7745361328125,9.6954345703125
2021-09-22 21:18:22.620742,-0.01318359375,0.04931640625,1.0,2.8509521484375,0.7965087890625,9.6954345703125
2021-09-22 21:18:22.630637,-0.01318359375,0.04833984375,0.99609375,2.823486328125,0.81298828125,9.6954345703125
2021-09-22 21:18:22.640506,-0.01611328125,0.04052734375,1.00244140625,2.7850341796875,0.8294677734375,9.6954345703125
2021-09-22 21:18:22.650431,-0.0185546875,0.03515625,1.00048828125,2.7410888671875,0.845947265625,9.6954345703125
2021-09-22 21:18:22.660569,-0.01708984375,0.03076171875,0.99853515625,2.6971435546875,0.85693359375,9.6954345703125
2021-09-22 21:18:22.670448,-0.0166015625,0.03564453125,1.00244140625,2.65869140625,0.867919921875,9.68994140625
2021-09-22 21:18:22.680375,-0.015625,0.04052734375,0.99609375,2.625732421875,0.8734130859375,9.68994140625
2021-09-22 21:18:22.690232,-0.01220703125,0.0439453125,0.9990234375,2.5872802734375,0.8734130859375,9.6844482421875
2021-09-22 21:18:22.700504,-0.01123046875,0.04345703125,1.0009765625,2.548828125,0.8734130859375,9.678955078125
2021-09-22 21:18:22.710427,-0.0126953125,0.0380859375,1.001953125,2.5103759765625,0.8734130859375,9.66796875
2021-09-22 21:18:22.720242,-0.0107421875,0.02978515625,1.00341796875,2.471923828125,0.8734130859375,9.6514892578125
2021-09-22 21:18:22.730266,-0.013671875,0.03173828125,1.0029296875,2.4444580078125,0.8734130859375,9.635009765625
2021-09-22 21:18:22.740260,-0.01611328125,0.0380859375,0.99853515625,2.4334716796875,0.8734130859375,9.613037109375
2021-09-22 21:18:22.750759,-0.01611328125,0.041015625,1.00048828125,2.4334716796875,0.87890625,9.591064453125
2021-09-22 21:18:22.760103,-0.0205078125,0.03955078125,0.994140625,2.43896484375,0.87890625,9.5745849609375
2021-09-22 21:18:22.769966,-0.02197265625,0.0390625,0.994140625,2.449951171875,0.8734130859375,9.55810546875
2021-09-22 21:18:22.780061,-0.0224609375,0.03857421875,1.0,2.471923828125,0.867919921875,9.547119140625
2021-09-22 21:18:22.789962,-0.01806640625,0.04150390625,0.9990234375,2.5103759765625,0.8624267578125,9.5361328125
2021-09-22 21:18:22.800095,-0.01318359375,0.04345703125,1.0009765625,2.5543212890625,0.8514404296875,9.525146484375
2021-09-22 21:18:22.810074,-0.0146484375,0.04296875,0.99951171875,2.603759765625,0.8404541015625,9.5086669921875
2021-09-22 21:18:22.819903,-0.013671875,0.0400390625,0.9990234375,2.6531982421875,0.8294677734375,9.4921875
2021-09-22 21:18:22.829856,-0.01318359375,0.03857421875,0.9921875,2.70263671875,0.81298828125,9.4757080078125
2021-09-22 21:18:22.839735,-0.01318359375,0.03857421875,0.9921875,2.74658203125,0.802001953125,9.459228515625
2021-09-22 21:18:22.849665,-0.01708984375,0.041015625,0.99072265625,2.79052734375,0.791015625,9.4482421875
2021-09-22 21:18:22.859814,-0.0166015625,0.04541015625,0.99609375,2.8289794921875,0.7745361328125,9.4317626953125
2021-09-22 21:18:22.869661,-0.01416015625,0.048828125,0.99560546875,2.8619384765625,0.758056640625,9.4207763671875
2021-09-22 21:18:22.879655,-0.0146484375,0.05322265625,0.99365234375,2.8839111328125,0.7415771484375,9.404296875
2021-09-22 21:18:22.889472,-0.0126953125,0.05322265625,0.9970703125,2.900390625,0.72509765625,9.393310546875
2021-09-22 21:18:22.899808,-0.01220703125,0.0517578125,0.9931640625,2.911376953125,0.703125,9.3878173828125
2021-09-22 21:18:22.909740,-0.01123046875,0.05322265625,0.99560546875,2.911376953125,0.6866455078125,9.3768310546875
2021-09-22 21:18:22.919537,-0.01171875,0.0517578125,0.994140625,2.900390625,0.670166015625,9.3658447265625
2021-09-22 21:18:22.929437,-0.0107421875,0.05029296875,0.99267578125,2.8839111328125,0.648193359375,9.3548583984375
2021-09-22 21:18:22.939476,-0.00927734375,0.04833984375,0.99169921875,2.8619384765625,0.6317138671875,9.3438720703125
2021-09-22 21:18:22.949441,-0.009765625,0.0498046875,0.99169921875,2.83447265625,0.6207275390625,9.3328857421875
2021-09-22 21:18:22.959353,-0.0087890625,0.048828125,0.98974609375,2.8070068359375,0.604248046875,9.31640625
2021-09-22 21:18:22.969266,-0.00830078125,0.048828125,0.99267578125,2.779541015625,0.59326171875,9.305419921875
2021-09-22 21:18:22.979321,-0.009765625,0.04931640625,0.99267578125,2.7520751953125,0.5877685546875,9.2889404296875
2021-09-22 21:18:22.989229,-0.009765625,0.04833984375,0.9892578125,2.724609375,0.582275390625,9.2724609375
2021-09-22 21:18:22.999304,-0.009765625,0.052734375,0.98974609375,2.6971435546875,0.5767822265625,9.261474609375
2021-09-22 21:18:23.009252,-0.00830078125,0.0537109375,0.98876953125,2.6806640625,0.5767822265625,9.2449951171875
2021-09-22 21:18:23.019212,-0.00830078125,0.0517578125,0.98681640625,2.6641845703125,0.5767822265625,9.2340087890625
2021-09-22 21:18:23.029153,-0.0068359375,0.046875,0.98779296875,2.647705078125,0.5767822265625,9.2230224609375
2021-09-22 21:18:23.039081,-0.0068359375,0.046875,0.9892578125,2.647705078125,0.582275390625,9.2120361328125
2021-09-22 21:18:23.049212,-0.0087890625,0.046875,0.98828125,2.65869140625,0.5877685546875,9.20654296875
2021-09-22 21:18:23.059106,-0.01123046875,0.0498046875,0.986328125,2.6806640625,0.5987548828125,9.195556640625
2021-09-22 21:18:23.069025,-0.01220703125,0.05029296875,0.99169921875,2.713623046875,0.615234375,9.1900634765625
2021-09-22 21:18:23.078962,-0.01025390625,0.05224609375,0.990234375,2.7630615234375,0.626220703125,9.1900634765625
2021-09-22 21:18:23.088955,-0.01025390625,0.052734375,0.98876953125,2.8125,0.63720703125,9.1900634765625
2021-09-22 21:18:23.099092,-0.01318359375,0.048828125,0.99072265625,2.8619384765625,0.648193359375,9.195556640625
2021-09-22 21:18:23.108999,-0.01416015625,0.0458984375,0.98974609375,2.9058837890625,0.6591796875,9.2010498046875
2021-09-22 21:18:23.118820,-0.013671875,0.04443359375,0.98779296875,2.9443359375,0.670166015625,9.217529296875
2021-09-22 21:18:23.128736,-0.01025390625,0.04638671875,0.98779296875,2.977294921875,0.68115234375,9.228515625
2021-09-22 21:18:23.138786,-0.01123046875,0.04931640625,0.98876953125,3.0047607421875,0.6866455078125,9.2449951171875
2021-09-22 21:18:23.148704,-0.009765625,0.05517578125,0.9921875,3.0267333984375,0.692138671875,9.261474609375
2021-09-22 21:18:23.158628,-0.01025390625,0.05859375,0.99365234375,3.043212890625,0.703125,9.2779541015625
2021-09-22 21:18:23.168574,-0.01123046875,0.05859375,0.99755859375,3.0487060546875,0.7086181640625,9.29443359375
2021-09-22 21:18:23.178670,-0.01220703125,0.05517578125,1.00048828125,3.0487060546875,0.7196044921875,9.305419921875
2021-09-22 21:18:23.188567,-0.01220703125,0.05078125,1.001953125,3.0377197265625,0.7305908203125,9.3218994140625
2021-09-22 21:18:23.198668,-0.01416015625,0.05126953125,0.998046875,3.0157470703125,0.7470703125,9.3328857421875
2021-09-22 21:18:23.208561,-0.01123046875,0.04638671875,0.9931640625,2.9827880859375,0.7635498046875,9.3438720703125
2021-09-22 21:18:23.218595,-0.0107421875,0.046875,0.99072265625,2.9388427734375,0.780029296875,9.3548583984375
2021-09-22 21:18:23.228445,-0.00732421875,0.048828125,0.98876953125,2.8839111328125,0.7965087890625,9.3603515625
2021-09-22 21:18:23.238340,-0.00927734375,0.05029296875,0.98876953125,2.823486328125,0.81298828125,9.3603515625
2021-09-22 21:18:23.249000,-0.0068359375,0.052734375,0.99072265625,2.7630615234375,0.8349609375,9.3658447265625
2021-09-22 21:18:23.258340,-0.00927734375,0.05322265625,0.994140625,2.70263671875,0.85693359375,9.3658447265625
2021-09-22 21:18:23.268256,-0.01123046875,0.05126953125,0.9921875,2.6422119140625,0.87890625,9.3658447265625
2021-09-22 21:18:23.278211,-0.01171875,0.05029296875,0.99169921875,2.5872802734375,0.90087890625,9.3658447265625
2021-09-22 21:18:23.288103,-0.0107421875,0.04931640625,0.99072265625,2.537841796875,0.9228515625,9.371337890625
2021-09-22 21:18:23.298395,-0.01611328125,0.05029296875,0.98974609375,2.4993896484375,0.9503173828125,9.3768310546875
2021-09-22 21:18:23.308237,-0.01708984375,0.04638671875,0.9853515625,2.4664306640625,0.9722900390625,9.3878173828125
2021-09-22 21:18:23.318089,-0.0185546875,0.0439453125,0.984375,2.43896484375,0.9942626953125,9.3988037109375
2021-09-22 21:18:23.328039,-0.0185546875,0.04248046875,0.984375,2.4169921875,1.0162353515625,9.415283203125
2021-09-22 21:18:23.338102,-0.017578125,0.044921875,0.98291015625,2.4114990234375,1.03271484375,9.42626953125
2021-09-22 21:18:23.347978,-0.015625,0.04638671875,0.9833984375,2.4224853515625,1.0491943359375,9.4482421875
2021-09-22 21:18:23.357863,-0.01904296875,0.04931640625,0.982421875,2.43896484375,1.0711669921875,9.4647216796875
2021-09-22 21:18:23.367853,-0.02197265625,0.0546875,0.98046875,2.471923828125,1.087646484375,9.481201171875
2021-09-22 21:18:23.377925,-0.02001953125,0.05517578125,0.98095703125,2.5048828125,1.1041259765625,9.4976806640625
2021-09-22 21:18:23.387848,-0.02001953125,0.05419921875,0.98583984375,2.548828125,1.12060546875,9.5196533203125
2021-09-22 21:18:23.397883,-0.0205078125,0.05126953125,0.98681640625,2.5927734375,1.131591796875,9.5361328125
2021-09-22 21:18:23.407764,-0.0234375,0.04638671875,0.97998046875,2.63671875,1.1480712890625,9.5526123046875
2021-09-22 21:18:23.417805,-0.01953125,0.0478515625,0.97998046875,2.6861572265625,1.16455078125,9.5635986328125
2021-09-22 21:18:23.427733,-0.0205078125,0.04833984375,0.97705078125,2.735595703125,1.175537109375,9.5745849609375
2021-09-22 21:18:23.437670,-0.0234375,0.046875,0.97705078125,2.779541015625,1.1920166015625,9.580078125
2021-09-22 21:18:23.447528,-0.0234375,0.0439453125,0.98095703125,2.8179931640625,1.20849609375,9.5855712890625
2021-09-22 21:18:23.457635,-0.025390625,0.0439453125,0.98046875,2.8564453125,1.2249755859375,9.5855712890625
2021-09-22 21:18:23.467541,-0.02587890625,0.0498046875,0.98046875,2.8948974609375,1.241455078125,9.5855712890625
2021-09-22 21:18:23.477498,-0.02734375,0.05224609375,0.97802734375,2.92236328125,1.25244140625,9.580078125
2021-09-22 21:18:23.487626,-0.0283203125,0.05810546875,0.98193359375,2.955322265625,1.2689208984375,9.580078125
2021-09-22 21:18:23.497619,-0.02734375,0.0595703125,0.984375,2.977294921875,1.285400390625,9.569091796875
2021-09-22 21:18:23.507591,-0.025390625,0.0556640625,0.98583984375,2.999267578125,1.29638671875,9.55810546875
2021-09-22 21:18:23.517389,-0.02294921875,0.0546875,0.990234375,3.01025390625,1.3128662109375,9.547119140625
2021-09-22 21:18:23.527469,-0.021484375,0.0576171875,0.990234375,3.0157470703125,1.3238525390625,9.5306396484375
2021-09-22 21:18:23.537347,-0.02099609375,0.056640625,0.9892578125,3.0157470703125,1.329345703125,9.51416015625
2021-09-22 21:18:23.547271,-0.02294921875,0.05419921875,0.99072265625,3.01025390625,1.34033203125,9.4921875
2021-09-22 21:18:23.557205,-0.0224609375,0.05078125,0.9912109375,2.999267578125,1.351318359375,9.4647216796875
2021-09-22 21:18:23.567306,-0.0234375,0.0439453125,0.9912109375,2.98828125,1.3623046875,9.4427490234375
2021-09-22 21:18:23.577177,-0.02392578125,0.0390625,0.98779296875,2.9718017578125,1.3677978515625,9.4207763671875
2021-09-22 21:18:23.587067,-0.02294921875,0.037109375,0.98388671875,2.955322265625,1.373291015625,9.3988037109375
2021-09-22 21:18:23.597184,-0.0244140625,0.04052734375,0.98779296875,2.9443359375,1.373291015625,9.3768310546875
2021-09-22 21:18:23.607093,-0.025390625,0.04931640625,0.99072265625,2.933349609375,1.373291015625,9.3603515625
2021-09-22 21:18:23.617147,-0.025390625,0.0517578125,0.99560546875,2.92236328125,1.3677978515625,9.3438720703125
2021-09-22 21:18:23.627071,-0.0263671875,0.048828125,0.99853515625,2.911376953125,1.3623046875,9.3328857421875
2021-09-22 21:18:23.636878,-0.0234375,0.04736328125,1.00048828125,2.900390625,1.351318359375,9.3218994140625
2021-09-22 21:18:23.646994,-0.01904296875,0.04638671875,1.0,2.8948974609375,1.34033203125,9.3109130859375
2021-09-22 21:18:23.656904,-0.01904296875,0.04541015625,0.99609375,2.8948974609375,1.3238525390625,9.29443359375
2021-09-22 21:18:23.666846,-0.02001953125,0.04736328125,0.99658203125,2.900390625,1.3128662109375,9.283447265625
2021-09-22 21:18:23.676778,-0.02392578125,0.046875,0.994140625,2.900390625,1.29638671875,9.2724609375
2021-09-22 21:18:23.686797,-0.0244140625,0.0458984375,0.99609375,2.900390625,1.2799072265625,9.2669677734375
2021-09-22 21:18:23.696965,-0.0224609375,0.04638671875,1.001953125,2.900390625,1.263427734375,9.261474609375
2021-09-22 21:18:23.706788,-0.01953125,0.04931640625,1.001953125,2.8948974609375,1.241455078125,9.261474609375
2021-09-22 21:18:23.716692,-0.0205078125,0.04833984375,1.0048828125,2.8948974609375,1.219482421875,9.261474609375
2021-09-22 21:18:23.726772,-0.0205078125,0.04833984375,1.00439453125,2.900390625,1.2030029296875,9.2559814453125
2021-09-22 21:18:23.736653,-0.01953125,0.04931640625,1.00146484375,2.9058837890625,1.1865234375,9.2559814453125
2021-09-22 21:18:23.747271,-0.0185546875,0.048828125,0.998046875,2.92236328125,1.1700439453125,9.2559814453125
2021-09-22 21:18:23.756477,-0.0205078125,0.04638671875,0.99560546875,2.933349609375,1.153564453125,9.2559814453125
2021-09-22 21:18:23.766566,-0.0205078125,0.0458984375,0.9951171875,2.955322265625,1.142578125,9.25048828125
2021-09-22 21:18:23.776475,-0.0205078125,0.04443359375,0.9970703125,2.9718017578125,1.131591796875,9.25048828125
2021-09-22 21:18:23.786389,-0.02099609375,0.0400390625,0.9951171875,2.98828125,1.1260986328125,9.2449951171875
2021-09-22 21:18:23.796419,-0.021484375,0.04150390625,0.99462890625,2.999267578125,1.1151123046875,9.239501953125
2021-09-22 21:18:23.806613,-0.0205078125,0.0458984375,0.998046875,3.01025390625,1.109619140625,9.239501953125
2021-09-22 21:18:23.816400,-0.02001953125,0.0498046875,0.998046875,3.0157470703125,1.1041259765625,9.239501953125
2021-09-22 21:18:23.826254,-0.01806640625,0.05322265625,0.9970703125,3.0157470703125,1.0931396484375,9.2449951171875
2021-09-22 21:18:23.836184,-0.01806640625,0.05126953125,1.00048828125,3.0047607421875,1.087646484375,9.2449951171875
2021-09-22 21:18:23.846309,-0.01953125,0.0458984375,1.00244140625,2.98828125,1.0821533203125,9.25048828125
2021-09-22 21:18:23.856217,-0.0166015625,0.04638671875,0.998046875,2.9718017578125,1.0711669921875,9.25048828125
2021-09-22 21:18:23.866151,-0.0166015625,0.04248046875,0.99609375,2.9443359375,1.065673828125,9.25048828125
2021-09-22 21:18:23.876064,-0.01318359375,0.04443359375,0.99462890625,2.911376953125,1.0601806640625,9.2559814453125
2021-09-22 21:18:23.886102,-0.01220703125,0.0419921875,0.99072265625,2.867431640625,1.0491943359375,9.2559814453125
2021-09-22 21:18:23.896182,-0.01513671875,0.04248046875,0.98779296875,2.8125,1.043701171875,9.2559814453125
2021-09-22 21:18:23.906129,-0.017578125,0.0439453125,0.98779296875,2.757568359375,1.0382080078125,9.261474609375
2021-09-22 21:18:23.916077,-0.01708984375,0.04443359375,0.98779296875,2.6971435546875,1.03271484375,9.2669677734375
2021-09-22 21:18:23.925996,-0.017578125,0.04638671875,0.9892578125,2.647705078125,1.0272216796875,9.2779541015625
2021-09-22 21:18:23.936041,-0.01953125,0.04541015625,0.994140625,2.5982666015625,1.0272216796875,9.2889404296875
2021-09-22 21:18:23.945839,-0.01953125,0.0439453125,0.9912109375,2.5653076171875,1.021728515625,9.305419921875
2021-09-22 21:18:23.955809,-0.01904296875,0.044921875,0.990234375,2.537841796875,1.021728515625,9.31640625
2021-09-22 21:18:23.965855,-0.01708984375,0.04541015625,0.98779296875,2.52685546875,1.021728515625,9.3328857421875
2021-09-22 21:18:23.975783,-0.0166015625,0.04541015625,0.98388671875,2.5213623046875,1.0162353515625,9.349365234375
2021-09-22 21:18:23.985683,-0.017578125,0.0458984375,0.97802734375,2.52685546875,1.0162353515625,9.3603515625
2021-09-22 21:18:23.995714,-0.0185546875,0.046875,0.97705078125,2.537841796875,1.021728515625,9.371337890625
2021-09-22 21:18:24.005837,-0.01953125,0.04345703125,0.978515625,2.5543212890625,1.0272216796875,9.3878173828125
2021-09-22 21:18:24.015745,-0.01708984375,0.046875,0.9794921875,2.581787109375,1.03271484375,9.393310546875
2021-09-22 21:18:24.025625,-0.01904296875,0.046875,0.98046875,2.6202392578125,1.0382080078125,9.404296875
2021-09-22 21:18:24.035678,-0.017578125,0.04931640625,0.9814453125,2.6641845703125,1.043701171875,9.4097900390625
2021-09-22 21:18:24.045599,-0.01806640625,0.05078125,0.98095703125,2.713623046875,1.0546875,9.415283203125
2021-09-22 21:18:24.055570,-0.01708984375,0.05126953125,0.9794921875,2.7630615234375,1.065673828125,9.415283203125
2021-09-22 21:18:24.065417,-0.0185546875,0.05078125,0.97705078125,2.8179931640625,1.07666015625,9.415283203125
2021-09-22 21:18:24.075535,-0.02197265625,0.05126953125,0.97900390625,2.867431640625,1.087646484375,9.4097900390625
2021-09-22 21:18:24.085395,-0.02001953125,0.0537109375,0.9853515625,2.911376953125,1.0986328125,9.404296875
2021-09-22 21:18:24.095540,-0.02001953125,0.0546875,0.9853515625,2.9608154296875,1.109619140625,9.393310546875
2021-09-22 21:18:24.105396,-0.02001953125,0.05712890625,0.9833984375,3.01025390625,1.12060546875,9.3878173828125
2021-09-22 21:18:24.115488,-0.0205078125,0.06201171875,0.9833984375,3.05419921875,1.1260986328125,9.3768310546875
2021-09-22 21:18:24.125335,-0.02197265625,0.06201171875,0.98291015625,3.09814453125,1.131591796875,9.3658447265625
2021-09-22 21:18:24.135255,-0.021484375,0.06103515625,0.98193359375,3.131103515625,1.1370849609375,9.3603515625
2021-09-22 21:18:24.145085,-0.0205078125,0.060546875,0.97900390625,3.153076171875,1.1370849609375,9.3603515625
2021-09-22 21:18:24.155266,-0.02099609375,0.0576171875,0.98046875,3.1585693359375,1.131591796875,9.3603515625
2021-09-22 21:18:24.165132,-0.017578125,0.05517578125,0.98193359375,3.1475830078125,1.12060546875,9.3603515625
2021-09-22 21:18:24.175090,-0.01806640625,0.052734375,0.984375,3.1256103515625,1.109619140625,9.3658447265625
2021-09-22 21:18:24.184962,-0.01708984375,0.05126953125,0.98828125,3.09814453125,1.087646484375,9.3768310546875
2021-09-22 21:18:24.195282,-0.0166015625,0.0537109375,0.99169921875,3.065185546875,1.065673828125,9.38232421875
2021-09-22 21:18:24.205141,-0.017578125,0.05712890625,0.9921875,3.0377197265625,1.043701171875,9.393310546875
2021-09-22 21:18:24.215103,-0.01904296875,0.06201171875,0.99365234375,3.01025390625,1.0162353515625,9.404296875
2021-09-22 21:18:24.224891,-0.02001953125,0.05859375,0.99169921875,2.98828125,0.98876953125,9.415283203125
2021-09-22 21:18:24.234972,-0.01806640625,0.05517578125,0.990234375,2.9608154296875,0.955810546875,9.4317626953125
2021-09-22 21:18:24.245544,-0.013671875,0.04736328125,0.99072265625,2.933349609375,0.9173583984375,9.4482421875
2021-09-22 21:18:24.254783,-0.01513671875,0.0458984375,0.98779296875,2.9058837890625,0.87890625,9.4647216796875
2021-09-22 21:18:24.264722,-0.0146484375,0.048828125,0.99169921875,2.8839111328125,0.8404541015625,9.481201171875
2021-09-22 21:18:24.274795,-0.017578125,0.04833984375,0.99267578125,2.867431640625,0.8074951171875,9.4976806640625
2021-09-22 21:18:24.284655,-0.01513671875,0.05224609375,0.99658203125,2.8564453125,0.76904296875,9.51416015625
2021-09-22 21:18:24.294758,-0.01806640625,0.05419921875,0.998046875,2.8509521484375,0.7305908203125,9.5306396484375
2021-09-22 21:18:24.304719,-0.015625,0.0517578125,0.994140625,2.8564453125,0.692138671875,9.5416259765625
2021-09-22 21:18:24.314743,-0.01416015625,0.04833984375,0.99169921875,2.867431640625,0.6536865234375,9.5526123046875
2021-09-22 21:18:24.324614,-0.01513671875,0.04638671875,0.9931640625,2.87841796875,0.6207275390625,9.5635986328125
2021-09-22 21:18:24.334538,-0.013671875,0.04443359375,0.99169921875,2.900390625,0.5877685546875,9.569091796875
2021-09-22 21:18:24.344570,-0.01318359375,0.04052734375,0.98828125,2.9168701171875,0.560302734375,9.5745849609375
2021-09-22 21:18:24.354494,-0.01513671875,0.0400390625,0.9921875,2.9388427734375,0.5328369140625,9.569091796875
2021-09-22 21:18:24.364473,-0.01708984375,0.0419921875,0.994140625,2.96630859375,0.5108642578125,9.569091796875
2021-09-22 21:18:24.374355,-0.017578125,0.04443359375,0.99609375,2.999267578125,0.494384765625,9.55810546875
2021-09-22 21:18:24.384393,-0.01611328125,0.0478515625,0.99853515625,3.0322265625,0.4779052734375,9.547119140625
2021-09-22 21:18:24.394571,-0.01416015625,0.05419921875,0.994140625,3.0706787109375,0.46142578125,9.5306396484375
2021-09-22 21:18:24.404811,-0.009765625,0.056640625,0.9990234375,3.109130859375,0.450439453125,9.5086669921875
2021-09-22 21:18:24.414888,-0.00830078125,0.0537109375,0.99755859375,3.1365966796875,0.4449462890625,9.4866943359375
2021-09-22 21:18:24.424718,-0.00927734375,0.0546875,0.9951171875,3.153076171875,0.4339599609375,9.459228515625
2021-09-22 21:18:24.434645,-0.01025390625,0.052734375,0.9912109375,3.1695556640625,0.4339599609375,9.42626953125
2021-09-22 21:18:24.444582,-0.01318359375,0.04931640625,0.9912109375,3.1695556640625,0.4339599609375,9.3988037109375
2021-09-22 21:18:24.454409,-0.01318359375,0.04736328125,0.9931640625,3.1640625,0.4339599609375,9.3658447265625
2021-09-22 21:18:24.464586,-0.01123046875,0.04833984375,0.99365234375,3.1585693359375,0.439453125,9.33837890625
2021-09-22 21:18:24.474539,-0.00927734375,0.05078125,0.99365234375,3.14208984375,0.4449462890625,9.3109130859375
2021-09-22 21:18:24.484398,-0.0107421875,0.05419921875,0.98876953125,3.131103515625,0.4449462890625,9.283447265625
2021-09-22 21:18:24.494299,-0.01123046875,0.0556640625,0.98779296875,3.109130859375,0.450439453125,9.261474609375
2021-09-22 21:18:24.504298,-0.00732421875,0.0576171875,0.9892578125,3.0816650390625,0.450439453125,9.239501953125
2021-09-22 21:18:24.514459,-0.00634765625,0.05810546875,0.9931640625,3.05419921875,0.450439453125,9.2230224609375
2021-09-22 21:18:24.524128,-0.0078125,0.05322265625,0.9912109375,3.0157470703125,0.450439453125,9.2120361328125
2021-09-22 21:18:24.534181,-0.00439453125,0.05078125,0.99755859375,2.9827880859375,0.450439453125,9.2010498046875
2021-09-22 21:18:24.544281,-0.0048828125,0.0546875,0.99755859375,2.955322265625,0.4449462890625,9.195556640625
2021-09-22 21:18:24.554202,-0.0048828125,0.06005859375,0.99462890625,2.9388427734375,0.4449462890625,9.195556640625
2021-09-22 21:18:24.564023,-0.00732421875,0.06005859375,0.9951171875,2.92236328125,0.4449462890625,9.195556640625
2021-09-22 21:18:24.573913,-0.0068359375,0.06005859375,0.9970703125,2.9058837890625,0.4449462890625,9.2010498046875
2021-09-22 21:18:24.583900,-0.00634765625,0.05322265625,0.99609375,2.8948974609375,0.450439453125,9.20654296875
2021-09-22 21:18:24.594023,-0.00439453125,0.04736328125,0.99462890625,2.87841796875,0.450439453125,9.217529296875
2021-09-22 21:18:24.604038,-0.0048828125,0.0439453125,0.9912109375,2.867431640625,0.4559326171875,9.228515625
2021-09-22 21:18:24.614199,-0.00244140625,0.04345703125,0.9921875,2.8564453125,0.46142578125,9.239501953125
2021-09-22 21:18:24.623996,-0.00537109375,0.04150390625,0.9921875,2.845458984375,0.4669189453125,9.25048828125
2021-09-22 21:18:24.633782,-0.00732421875,0.0419921875,0.99169921875,2.83447265625,0.4779052734375,9.261474609375
2021-09-22 21:18:24.643637,-0.0087890625,0.04296875,0.98876953125,2.83447265625,0.4888916015625,9.2724609375
2021-09-22 21:18:24.653696,-0.01025390625,0.04541015625,0.99365234375,2.83447265625,0.50537109375,9.2889404296875
2021-09-22 21:18:24.663670,-0.01220703125,0.0478515625,0.99267578125,2.845458984375,0.5218505859375,9.305419921875
2021-09-22 21:18:24.673674,-0.01513671875,0.0478515625,0.9912109375,2.8564453125,0.5438232421875,9.31640625
2021-09-22 21:18:24.683610,-0.01708984375,0.04736328125,0.9931640625,2.8729248046875,0.5657958984375,9.327392578125
2021-09-22 21:18:24.693520,-0.01611328125,0.0478515625,0.994140625,2.8948974609375,0.59326171875,9.33837890625
2021-09-22 21:18:24.703715,-0.01513671875,0.0458984375,0.994140625,2.9168701171875,0.626220703125,9.3438720703125
2021-09-22 21:18:24.713694,-0.0126953125,0.04833984375,0.9951171875,2.955322265625,0.6536865234375,9.3438720703125
2021-09-22 21:18:24.723503,-0.0126953125,0.0517578125,0.99365234375,2.9937744140625,0.692138671875,9.3438720703125
2021-09-22 21:18:24.733385,-0.0146484375,0.05078125,0.99365234375,3.0377197265625,0.736083984375,9.3328857421875
2021-09-22 21:18:24.744000,-0.01611328125,0.05224609375,0.990234375,3.087158203125,0.780029296875,9.31640625
2021-09-22 21:18:24.753342,-0.013671875,0.04833984375,0.98779296875,3.1256103515625,0.823974609375,9.2999267578125
2021-09-22 21:18:24.763280,-0.013671875,0.04638671875,0.9892578125,3.1585693359375,0.8734130859375,9.2779541015625
2021-09-22 21:18:24.773310,-0.013671875,0.048828125,0.9853515625,3.18603515625,0.9228515625,9.25048828125
2021-09-22 21:18:24.783221,-0.017578125,0.04931640625,0.98876953125,3.2025146484375,0.966796875,9.228515625
2021-09-22 21:18:24.793158,-0.017578125,0.05126953125,0.98876953125,3.2080078125,1.0162353515625,9.2010498046875
2021-09-22 21:18:24.803492,-0.01806640625,0.05322265625,0.990234375,3.2080078125,1.065673828125,9.173583984375
2021-09-22 21:18:24.813371,-0.01513671875,0.0537109375,0.9873046875,3.2025146484375,1.1041259765625,9.1461181640625
2021-09-22 21:18:24.823365,-0.01220703125,0.05517578125,0.98681640625,3.18603515625,1.142578125,9.11865234375
2021-09-22 21:18:24.833180,-0.01171875,0.0537109375,0.98583984375,3.1640625,1.175537109375,9.0966796875
2021-09-22 21:18:24.843095,-0.013671875,0.0546875,0.98583984375,3.131103515625,1.2030029296875,9.07470703125
2021-09-22 21:18:24.852941,-0.013671875,0.05712890625,0.98876953125,3.0926513671875,1.23046875,9.052734375
2021-09-22 21:18:24.863094,-0.01171875,0.06103515625,0.9892578125,3.05419921875,1.2469482421875,9.041748046875
2021-09-22 21:18:24.873006,-0.01123046875,0.0576171875,0.98681640625,3.01025390625,1.263427734375,9.0252685546875
2021-09-22 21:18:24.882927,-0.01220703125,0.056640625,0.9853515625,2.96630859375,1.2689208984375,9.019775390625
2021-09-22 21:18:24.892755,-0.0126953125,0.0576171875,0.986328125,2.9278564453125,1.2744140625,9.0142822265625
2021-09-22 21:18:24.902936,-0.0107421875,0.05712890625,0.98046875,2.8948974609375,1.2744140625,9.0087890625
2021-09-22 21:18:24.912883,-0.00927734375,0.05615234375,0.9794921875,2.8729248046875,1.2744140625,9.0087890625
2021-09-22 21:18:24.922823,-0.01123046875,0.05712890625,0.9765625,2.867431640625,1.2689208984375,9.0032958984375
2021-09-22 21:18:24.932681,-0.01123046875,0.05859375,0.97802734375,2.8729248046875,1.2689208984375,9.0032958984375
2021-09-22 21:18:24.942838,-0.01171875,0.05615234375,0.97216796875,2.8948974609375,1.263427734375,8.997802734375
2021-09-22 21:18:24.952758,-0.0126953125,0.0537109375,0.97509765625,2.933349609375,1.263427734375,8.9923095703125
2021-09-22 21:18:24.962680,-0.0146484375,0.05029296875,0.97607421875,2.98828125,1.263427734375,8.9813232421875
2021-09-22 21:18:24.972567,-0.01708984375,0.04833984375,0.982421875,3.0596923828125,1.2689208984375,8.9703369140625
2021-09-22 21:18:24.982613,-0.0205078125,0.05029296875,0.98046875,3.1365966796875,1.2744140625,8.9593505859375
2021-09-22 21:18:24.992544,-0.0224609375,0.05322265625,0.98095703125,3.2244873046875,1.2799072265625,8.9483642578125
2021-09-22 21:18:25.002782,-0.02099609375,0.06103515625,0.98291015625,3.3123779296875,1.285400390625,8.931884765625
2021-09-22 21:18:25.012589,-0.01953125,0.05908203125,0.98193359375,3.394775390625,1.2799072265625,8.9208984375
2021-09-22 21:18:25.022521,-0.017578125,0.056640625,0.98388671875,3.460693359375,1.2799072265625,8.909912109375
2021-09-22 21:18:25.032327,-0.0224609375,0.056640625,0.98583984375,3.5101318359375,1.2799072265625,8.9044189453125
2021-09-22 21:18:25.042157,-0.0205078125,0.0537109375,0.9853515625,3.5430908203125,1.2689208984375,8.8934326171875
2021-09-22 21:18:25.051966,-0.0205078125,0.056640625,0.98974609375,3.5650634765625,1.263427734375,8.8824462890625
2021-09-22 21:18:25.061955,-0.02099609375,0.0595703125,0.98974609375,3.570556640625,1.25244140625,8.8714599609375
2021-09-22 21:18:25.071860,-0.01904296875,0.060546875,0.98974609375,3.570556640625,1.241455078125,8.8604736328125
2021-09-22 21:18:25.081782,-0.021484375,0.060546875,0.98828125,3.548583984375,1.23046875,8.85498046875
2021-09-22 21:18:25.091825,-0.02294921875,0.0615234375,0.98779296875,3.5211181640625,1.2139892578125,8.8494873046875
2021-09-22 21:18:25.101874,-0.02099609375,0.06005859375,0.9912109375,3.482666015625,1.197509765625,8.843994140625
2021-09-22 21:18:25.111818,-0.01904296875,0.0576171875,0.99462890625,3.4332275390625,1.175537109375,8.8385009765625
2021-09-22 21:18:25.121674,-0.01708984375,0.05615234375,0.99560546875,3.3892822265625,1.1590576171875,8.8385009765625
2021-09-22 21:18:25.131728,-0.015625,0.05712890625,0.99609375,3.350830078125,1.1370849609375,8.8330078125
2021-09-22 21:18:25.141633,-0.01611328125,0.06005859375,0.99462890625,3.3233642578125,1.1151123046875,8.822021484375
2021-09-22 21:18:25.151560,-0.0146484375,0.05517578125,0.99267578125,3.3013916015625,1.0986328125,8.81103515625
2021-09-22 21:18:25.161621,-0.0166015625,0.05322265625,0.98486328125,3.2904052734375,1.0821533203125,8.800048828125
2021-09-22 21:18:25.171684,-0.01904296875,0.05517578125,0.98486328125,3.2904052734375,1.0711669921875,8.7890625
2021-09-22 21:18:25.181586,-0.0205078125,0.0546875,0.98388671875,3.3013916015625,1.0601806640625,8.778076171875
2021-09-22 21:18:25.191432,-0.02197265625,0.06005859375,0.986328125,3.3233642578125,1.0546875,8.7725830078125
2021-09-22 21:18:25.201325,-0.02294921875,0.06201171875,0.9912109375,3.350830078125,1.043701171875,8.76708984375
2021-09-22 21:18:25.211450,-0.0224609375,0.05810546875,0.98779296875,3.3892822265625,1.0382080078125,8.76708984375
2021-09-22 21:18:25.221422,-0.02001953125,0.05078125,0.98779296875,3.4222412109375,1.0272216796875,8.7615966796875
2021-09-22 21:18:25.231864,-0.0185546875,0.05078125,0.98681640625,3.460693359375,1.021728515625,8.7615966796875
2021-09-22 21:18:25.242403,-0.02099609375,0.05322265625,0.98876953125,3.49365234375,1.0162353515625,8.756103515625
2021-09-22 21:18:25.251841,-0.02294921875,0.05810546875,0.98828125,3.5321044921875,1.0107421875,8.756103515625
2021-09-22 21:18:25.261684,-0.021484375,0.0634765625,0.9892578125,3.5595703125,1.0052490234375,8.7506103515625
2021-09-22 21:18:25.271599,-0.021484375,0.06591796875,0.99072265625,3.58154296875,0.999755859375,8.7506103515625
2021-09-22 21:18:25.281581,-0.01708984375,0.06689453125,0.994140625,3.5980224609375,0.999755859375,8.7506103515625
2021-09-22 21:18:25.291577,-0.01611328125,0.06787109375,1.00048828125,3.603515625,0.9942626953125,8.7451171875
2021-09-22 21:18:25.301495,-0.01708984375,0.064453125,0.9990234375,3.592529296875,0.9942626953125,8.7451171875
2021-09-22 21:18:25.311451,-0.01806640625,0.06396484375,0.998046875,3.5760498046875,0.9942626953125,8.734130859375
2021-09-22 21:18:25.321559,-0.0205078125,0.0654296875,0.994140625,3.548583984375,0.999755859375,8.7286376953125
2021-09-22 21:18:25.331434,-0.0205078125,0.06201171875,0.998046875,3.504638671875,1.0052490234375,8.72314453125
2021-09-22 21:18:25.341402,-0.0224609375,0.05615234375,0.9951171875,3.4552001953125,1.0162353515625,8.7176513671875
2021-09-22 21:18:25.351244,-0.0205078125,0.052734375,0.99658203125,3.394775390625,1.021728515625,8.7176513671875
2021-09-22 21:18:25.361415,-0.0205078125,0.05419921875,0.998046875,3.33984375,1.0272216796875,8.712158203125
2021-09-22 21:18:25.371243,-0.0205078125,0.0546875,0.99755859375,3.284912109375,1.0382080078125,8.712158203125
2021-09-22 21:18:25.381287,-0.0224609375,0.05810546875,0.9951171875,3.2464599609375,1.043701171875,8.7066650390625
2021-09-22 21:18:25.391139,-0.02490234375,0.05908203125,0.994140625,3.2135009765625,1.0546875,8.7066650390625
2021-09-22 21:18:25.401098,-0.0283203125,0.060546875,0.99560546875,3.1915283203125,1.0711669921875,8.7066650390625
2021-09-22 21:18:25.411259,-0.02490234375,0.05615234375,0.99560546875,3.175048828125,1.07666015625,8.712158203125
2021-09-22 21:18:25.421212,-0.0244140625,0.05224609375,0.99267578125,3.1640625,1.087646484375,8.72314453125
2021-09-22 21:18:25.431233,-0.02197265625,0.05126953125,0.9912109375,3.1640625,1.0931396484375,8.734130859375
2021-09-22 21:18:25.441128,-0.0205078125,0.05322265625,0.99169921875,3.1695556640625,1.0931396484375,8.7451171875
2021-09-22 21:18:25.451078,-0.02197265625,0.05712890625,0.9912109375,3.18603515625,1.0986328125,8.7615966796875
2021-09-22 21:18:25.460966,-0.0244140625,0.0625,0.99169921875,3.218994140625,1.0986328125,8.7725830078125
2021-09-22 21:18:25.470918,-0.02685546875,0.0634765625,0.98974609375,3.251953125,1.1041259765625,8.7890625
2021-09-22 21:18:25.480950,-0.02587890625,0.06396484375,0.9931640625,3.2958984375,1.109619140625,8.800048828125
2021-09-22 21:18:25.490895,-0.02392578125,0.06298828125,0.9912109375,3.3453369140625,1.109619140625,8.8165283203125
2021-09-22 21:18:25.500839,-0.021484375,0.0595703125,0.99658203125,3.394775390625,1.1041259765625,8.8275146484375
2021-09-22 21:18:25.510795,-0.01904296875,0.06201171875,0.99609375,3.4552001953125,1.1041259765625,8.8385009765625
2021-09-22 21:18:25.520845,-0.0185546875,0.06103515625,0.99169921875,3.5101318359375,1.0986328125,8.843994140625
2021-09-22 21:18:25.530747,-0.01953125,0.06396484375,0.99169921875,3.570556640625,1.0931396484375,8.843994140625
2021-09-22 21:18:25.540572,-0.02392578125,0.06884765625,0.9892578125,3.62548828125,1.0931396484375,8.843994140625
2021-09-22 21:18:25.550611,0.07763671875,0.08544921875,1.08984375,3.680419921875,1.0382080078125,8.8385009765625
2021-09-22 21:18:25.560663,0.13916015625,0.072265625,0.8203125,3.680419921875,0.90087890625,8.8055419921875
2021-09-22 21:18:25.570708,-0.0546875,-0.0498046875,1.1318359375,3.7188720703125,0.7965087890625,8.59130859375
2021-09-22 21:18:25.580623,-0.1474609375,0.08447265625,1.013671875,3.768310546875,0.736083984375,8.2452392578125
2021-09-22 21:18:25.590643,-0.068359375,0.15576171875,0.779296875,3.8616943359375,0.582275390625,7.9266357421875
2021-09-22 21:18:25.600581,-0.1005859375,0.091796875,0.89013671875,3.8726806640625,0.46142578125,7.679443359375
2021-09-22 21:18:25.610732,-0.04296875,0.09375,0.8203125,3.9111328125,0.37353515625,7.58056640625
2021-09-22 21:18:25.620567,0.0869140625,0.0419921875,1.0615234375,3.88916015625,0.2691650390625,7.701416015625
2021-09-22 21:18:25.630661,0.14013671875,0.02978515625,1.06640625,3.80126953125,0.1043701171875,8.009033203125
2021-09-22 21:18:25.640533,0.11767578125,0.0302734375,1.0390625,3.702392578125,-0.1043701171875,8.3551025390625
2021-09-22 21:18:25.650312,0.01708984375,0.1328125,1.11279296875,3.658447265625,-0.252685546875,8.6077880859375
2021-09-22 21:18:25.660427,-0.06005859375,0.12841796875,0.927734375,3.6749267578125,-0.362548828125,8.7506103515625
2021-09-22 21:18:25.670242,-0.11328125,0.126953125,0.97412109375,3.724365234375,-0.362548828125,8.7945556640625
2021-09-22 21:18:25.680360,0.01708984375,-0.0205078125,1.38232421875,3.7078857421875,-0.4559326171875,8.8494873046875
2021-09-22 21:18:25.690187,-0.03271484375,-0.02587890625,0.96484375,3.548583984375,-0.4669189453125,8.865966796875
2021-09-22 21:18:25.700160,-0.04736328125,0.10302734375,1.138671875,3.460693359375,-0.4229736328125,8.7396240234375
2021-09-22 21:18:25.710005,-0.10400390625,0.07666015625,0.85888671875,3.4002685546875,-0.362548828125,8.4869384765625
2021-09-22 21:18:25.720156,-0.03955078125,0.04052734375,1.05126953125,3.33984375,-0.3460693359375,8.19580078125
2021-09-22 21:18:25.729965,0.01318359375,0.0068359375,0.88671875,3.2244873046875,-0.3790283203125,7.9266357421875
2021-09-22 21:18:25.740694,0.0078125,-0.0048828125,1.0263671875,3.076171875,-0.41748046875,7.6904296875
2021-09-22 21:18:25.750062,-0.0087890625,0.0126953125,0.92431640625,2.9168701171875,-0.4779052734375,7.503662109375
2021-09-22 21:18:25.759989,-0.02392578125,0.06298828125,0.8896484375,2.801513671875,-0.5438232421875,7.3663330078125
2021-09-22 21:18:25.769968,-0.03759765625,0.0595703125,0.8505859375,2.7301025390625,-0.6097412109375,7.2344970703125
2021-09-22 21:18:25.779968,-0.01513671875,0.04150390625,0.94970703125,2.6751708984375,-0.6756591796875,7.0806884765625
2021-09-22 21:18:25.789665,-0.001953125,0.076171875,0.95556640625,2.6751708984375,-0.7305908203125,6.910400390625
2021-09-22 21:18:25.799987,0.0126953125,0.1162109375,0.94189453125,2.7301025390625,-0.7965087890625,6.7510986328125
2021-09-22 21:18:25.810004,0.029296875,0.06982421875,1.00732421875,2.8070068359375,-0.8734130859375,6.6302490234375
2021-09-22 21:18:25.819953,0.08984375,0.08984375,1.064453125,2.933349609375,-0.966796875,6.5643310546875
2021-09-22 21:18:25.829837,0.1064453125,0.09326171875,1.2861328125,3.01025390625,-1.0931396484375,6.5753173828125
2021-09-22 21:18:25.839843,0.064453125,0.0244140625,0.8642578125,3.0926513671875,-1.241455078125,6.690673828125
2021-09-22 21:18:25.849689,0.06103515625,0.0927734375,1.01611328125,3.218994140625,-1.34033203125,6.85546875
2021-09-22 21:18:25.859590,0.06494140625,0.03857421875,1.13623046875,3.350830078125,-1.417236328125,7.0367431640625
2021-09-22 21:18:25.869486,0.13232421875,0.09765625,1.06298828125,3.482666015625,-1.51611328125,7.2674560546875
2021-09-22 21:18:25.879572,0.1708984375,0.10205078125,1.0654296875,3.6199951171875,-1.6424560546875,7.5750732421875
2021-09-22 21:18:25.889511,0.115234375,0.04248046875,1.04443359375,3.71337890625,-1.746826171875,7.9266357421875
2021-09-22 21:18:25.899421,0.060546875,0.0283203125,1.0625,3.746337890625,-1.82373046875,8.2891845703125
2021-09-22 21:18:25.909397,0.05615234375,0.060546875,0.92724609375,3.768310546875,-1.8951416015625,8.61328125
2021-09-22 21:18:25.919345,-0.0087890625,0.06591796875,0.95703125,3.8067626953125,-1.86767578125,8.85498046875
2021-09-22 21:18:25.929389,-0.06201171875,0.134765625,0.9580078125,3.8616943359375,-1.790771484375,9.03076171875
2021-09-22 21:18:25.939310,-0.005859375,0.0869140625,0.7939453125,3.9111328125,-1.724853515625,9.1900634765625
2021-09-22 21:18:25.949221,0.11474609375,0.01513671875,0.8740234375,3.9385986328125,-1.6973876953125,9.3878173828125
2021-09-22 21:18:25.959194,0.13623046875,0.02490234375,0.9521484375,3.9111328125,-1.680908203125,9.6075439453125
2021-09-22 21:18:25.969300,0.06103515625,0.03271484375,1.0546875,3.80126953125,-1.6259765625,9.832763671875
2021-09-22 21:18:25.979253,0.046875,0.017578125,1.05224609375,3.6749267578125,-1.5655517578125,10.052490234375
2021-09-22 21:18:25.989052,0.0166015625,0.06982421875,0.99169921875,3.5595703125,-1.494140625,10.2117919921875
2021-09-22 21:18:25.999081,0.01025390625,0.05712890625,1.03369140625,3.4222412109375,-1.395263671875,10.26123046875
2021-09-22 21:18:26.009253,0.00146484375,0.03271484375,0.94775390625,3.27392578125,-1.2799072265625,10.2008056640625
2021-09-22 21:18:26.019142,0.01513671875,-0.01513671875,1.171875,3.1640625,-1.1865234375,10.0909423828125
2021-09-22 21:18:26.029222,0.01953125,-0.0166015625,0.87744140625,2.96630859375,-1.12060546875,9.964599609375
2021-09-22 21:18:26.039017,-0.0048828125,0.0302734375,1.0673828125,2.7520751953125,-0.98876953125,9.744873046875
2021-09-22 21:18:26.049079,-0.064453125,0.02880859375,0.82177734375,2.5433349609375,-0.81298828125,9.3988037109375
2021-09-22 21:18:26.059000,-0.05029296875,0.07373046875,1.01171875,2.39501953125,-0.6756591796875,8.96484375
2021-09-22 21:18:26.068907,-0.0048828125,-0.0185546875,0.97802734375,2.208251953125,-0.5767822265625,8.492431640625
2021-09-22 21:18:26.079033,0.029296875,0.03466796875,0.9384765625,2.010498046875,-0.5218505859375,8.031005859375
2021-09-22 21:18:26.088953,-0.0087890625,0.03271484375,0.92822265625,1.8017578125,-0.4833984375,7.6300048828125
2021-09-22 21:18:26.098823,-0.04541015625,0.0322265625,0.8828125,1.5985107421875,-0.450439453125,7.294921875
2021-09-22 21:18:26.108804,-0.0302734375,0.0537109375,0.900390625,1.417236328125,-0.450439453125,7.020263671875
2021-09-22 21:18:26.118639,-0.0234375,0.05029296875,0.84912109375,1.2799072265625,-0.4833984375,6.778564453125
2021-09-22 21:18:26.128845,-0.00048828125,0.037109375,1.0263671875,1.1590576171875,-0.54931640625,6.5423583984375
2021-09-22 21:18:26.138758,0.00048828125,0.0869140625,0.9677734375,1.0931396484375,-0.6317138671875,6.3226318359375
2021-09-22 21:18:26.148644,0.00390625,0.12744140625,0.8916015625,1.0931396484375,-0.7305908203125,6.1358642578125
2021-09-22 21:18:26.158588,0.01708984375,0.07421875,0.96044921875,1.131591796875,-0.845947265625,6.009521484375
2021-09-22 21:18:26.168501,0.0498046875,0.02880859375,0.9873046875,1.20849609375,-0.966796875,5.9490966796875
2021-09-22 21:18:26.178604,0.11181640625,0.087890625,1.3291015625,1.2908935546875,-1.131591796875,5.9490966796875
2021-09-22 21:18:26.188504,0.06298828125,0.00341796875,0.85595703125,1.3787841796875,-1.34033203125,6.0809326171875
2021-09-22 21:18:26.198405,0.0703125,0.07666015625,0.97412109375,1.5216064453125,-1.5216064453125,6.2786865234375
2021-09-22 21:18:26.208601,0.05615234375,0.013671875,1.0693359375,1.6864013671875,-1.669921875,6.514892578125
2021-09-22 21:18:26.218666,0.10986328125,0.0478515625,1.08544921875,1.878662109375,-1.8402099609375,6.8115234375
2021-09-22 21:18:26.228490,0.15185546875,0.0703125,1.029296875,2.0819091796875,-2.054443359375,7.2015380859375
2021-09-22 21:18:26.239045,0.1123046875,0.01513671875,0.97998046875,2.2467041015625,-2.26318359375,7.646484375
2021-09-22 21:18:26.248163,0.05517578125,-0.0068359375,1.06884765625,2.362060546875,-2.4444580078125,8.10791015625
2021-09-22 21:18:26.258309,0.05224609375,0.04248046875,0.90673828125,2.4664306640625,-2.63671875,8.5418701171875
2021-09-22 21:18:26.268094,0.0048828125,0.0546875,0.95361328125,2.6092529296875,-2.735595703125,8.89892578125
2021-09-22 21:18:26.278099,-0.0556640625,0.1064453125,0.96142578125,2.7740478515625,-2.79052734375,9.173583984375
2021-09-22 21:18:26.288192,0.001953125,0.0771484375,0.7783203125,2.977294921875,-2.8509521484375,9.42626953125
2021-09-22 21:18:26.298115,0.1298828125,0.03955078125,0.92333984375,3.175048828125,-2.9278564453125,9.7064208984375
2021-09-22 21:18:26.307993,0.16015625,0.0283203125,0.98095703125,3.328857421875,-3.021240234375,9.99755859375
2021-09-22 21:18:26.317968,0.07421875,0.04443359375,1.05126953125,3.4002685546875,-3.065185546875,10.283203125
2021-09-22 21:18:26.327974,0.056640625,0.01318359375,1.04833984375,3.44970703125,-3.0926513671875,10.5523681640625
2021-09-22 21:18:26.337914,0.0166015625,0.060546875,0.986328125,3.4881591796875,-3.09814453125,10.7611083984375
2021-09-22 21:18:26.347904,0.013671875,0.04833984375,1.0546875,3.504638671875,-3.0706787109375,10.8544921875
2021-09-22 21:18:26.357874,0.01806640625,0.01708984375,1.0009765625,3.49365234375,-3.0322265625,10.8380126953125
2021-09-22 21:18:26.367694,0.017578125,-0.02587890625,1.12890625,3.504638671875,-2.999267578125,10.7501220703125
2021-09-22 21:18:26.377714,0.01513671875,-0.02880859375,0.94287109375,3.4222412109375,-2.9827880859375,10.65673828125
2021-09-22 21:18:26.387685,-0.00537109375,0.015625,1.041015625,3.3123779296875,-2.8948974609375,10.4644775390625
2021-09-22 21:18:26.397761,-0.0615234375,0.0048828125,0.869140625,3.18603515625,-2.7685546875,10.1348876953125
2021-09-22 21:18:26.407951,-0.04736328125,0.0439453125,0.97802734375,3.1201171875,-2.647705078125,9.7174072265625
2021-09-22 21:18:26.417728,0.0029296875,-0.029296875,1.00390625,3.021240234375,-2.57080078125,9.25048828125
2021-09-22 21:18:26.427774,0.03662109375,0.02001953125,0.94873046875,2.900390625,-2.515869140625,8.7890625
2021-09-22 21:18:26.437659,0.00439453125,0.0380859375,0.9130859375,2.7740478515625,-2.471923828125,8.37158203125
2021-09-22 21:18:26.447518,-0.037109375,0.0478515625,0.9140625,2.6422119140625,-2.4114990234375,8.0145263671875
2021-09-22 21:18:26.457414,-0.0224609375,0.080078125,0.9228515625,2.537841796875,-2.373046875,7.7069091796875
2021-09-22 21:18:26.467412,-0.00390625,0.072265625,0.8759765625,2.4554443359375,-2.35107421875,7.4267578125
2021-09-22 21:18:26.477463,0.021484375,0.05908203125,1.0625,2.3895263671875,-2.340087890625,7.14111328125
2021-09-22 21:18:26.487437,0.01123046875,0.091796875,0.990234375,2.35107421875,-2.3236083984375,6.8609619140625
2021-09-22 21:18:26.497301,0.017578125,0.13671875,0.919921875,2.3675537109375,-2.318115234375,6.6082763671875
2021-09-22 21:18:26.507322,0.02880859375,0.0908203125,0.9921875,2.4114990234375,-2.318115234375,6.4105224609375
2021-09-22 21:18:26.517339,0.05078125,0.02880859375,0.9462890625,2.4609375,-2.3126220703125,6.273193359375
2021-09-22 21:18:26.527336,0.123046875,0.0947265625,1.3623046875,2.5103759765625,-2.3291015625,6.1962890625
2021-09-22 21:18:26.537201,0.07666015625,0.0146484375,0.88232421875,2.5323486328125,-2.39501953125,6.251220703125
2021-09-22 21:18:26.547087,0.08056640625,0.08447265625,0.98876953125,2.5927734375,-2.4444580078125,6.3775634765625
2021-09-22 21:18:26.557068,0.06396484375,0.0244140625,1.09423828125,2.647705078125,-2.4554443359375,6.5423583984375
2021-09-22 21:18:26.567041,0.11572265625,0.05712890625,1.1357421875,2.724609375,-2.471923828125,6.7730712890625
2021-09-22 21:18:26.576962,0.13232421875,0.02685546875,1.1142578125,2.757568359375,-2.52685546875,7.086181640625
2021-09-22 21:18:26.586926,0.10302734375,-0.01123046875,1.04541015625,2.7081298828125,-2.5433349609375,7.4652099609375
2021-09-22 21:18:26.597064,0.0625,-0.013671875,1.07177734375,2.603759765625,-2.5213623046875,7.8662109375
2021-09-22 21:18:26.607150,0.05859375,0.02783203125,0.8720703125,2.5323486328125,-2.5323486328125,8.26171875
2021-09-22 21:18:26.617134,-0.005859375,0.0322265625,0.91796875,2.4993896484375,-2.4444580078125,8.602294921875
2021-09-22 21:18:26.626922,-0.06298828125,0.11572265625,0.9365234375,2.515869140625,-2.28515625,8.8604736328125
2021-09-22 21:18:26.636831,-0.0146484375,0.07861328125,0.818359375,2.581787109375,-2.142333984375,9.0911865234375
2021-09-22 21:18:26.646812,0.095703125,0.0107421875,0.947265625,2.669677734375,-2.010498046875,9.349365234375
2021-09-22 21:18:26.656869,0.13232421875,0.0087890625,0.9423828125,2.7410888671875,-1.9061279296875,9.635009765625
2021-09-22 21:18:26.666869,0.05615234375,0.048828125,1.0439453125,2.7740478515625,-1.7633056640625,9.920654296875
2021-09-22 21:18:26.676879,0.02978515625,0.01220703125,1.0771484375,2.8125,-1.5985107421875,10.1898193359375
2021-09-22 21:18:26.686783,-0.00146484375,0.0673828125,1.00048828125,2.8729248046875,-1.417236328125,10.404052734375
2021-09-22 21:18:26.696678,0.01123046875,0.06787109375,1.09423828125,2.9443359375,-1.219482421875,10.513916015625
2021-09-22 21:18:26.706281,0.00537109375,0.03076171875,1.03857421875,2.999267578125,-1.0107421875,10.4974365234375
2021-09-22 21:18:26.716560,-0.03173828125,-0.0029296875,1.119140625,3.0926513671875,-0.7855224609375,10.426025390625
2021-09-22 21:18:26.726317,-0.02197265625,-0.0244140625,0.970703125,3.109130859375,-0.582275390625,10.3436279296875
2021-09-22 21:18:26.736988,-0.0234375,0.015625,1.02197265625,3.0926513671875,-0.3350830078125,10.1678466796875
2021-09-22 21:18:26.746185,-0.08544921875,0.01953125,0.873046875,3.05419921875,-0.0494384765625,9.86572265625
2021-09-22 21:18:26.756383,-0.08935546875,0.06201171875,0.98046875,3.043212890625,0.2142333984375,9.47021484375
2021-09-22 21:18:26.766361,-0.044921875,-0.0068359375,0.97412109375,2.9718017578125,0.4449462890625,9.041748046875
2021-09-22 21:18:26.776350,-0.01123046875,0.025390625,0.93798828125,2.8564453125,0.6317138671875,8.6077880859375
2021-09-22 21:18:26.786152,-0.0400390625,0.04345703125,0.890625,2.713623046875,0.791015625,8.2342529296875
2021-09-22 21:18:26.796005,-0.08056640625,0.05810546875,0.888671875,2.548828125,0.955810546875,7.921142578125
2021-09-22 21:18:26.806130,-0.05859375,0.0859375,0.92333984375,2.3895263671875,1.07666015625,7.657470703125
2021-09-22 21:18:26.816009,-0.04150390625,0.06298828125,0.8701171875,2.230224609375,1.1590576171875,7.4322509765625
2021-09-22 21:18:26.825950,-0.01708984375,0.0478515625,1.0546875,2.0599365234375,1.20849609375,7.2015380859375
2021-09-22 21:18:26.835990,-0.03173828125,0.083984375,0.97509765625,1.8951416015625,1.241455078125,6.9818115234375
2021-09-22 21:18:26.845894,-0.03662109375,0.119140625,0.900390625,1.7742919921875,1.25244140625,6.800537109375
2021-09-22 21:18:26.855860,-0.03173828125,0.08837890625,0.99755859375,1.680908203125,1.23046875,6.6796875
2021-09-22 21:18:26.865831,-0.00146484375,0.044921875,0.91796875,1.5985107421875,1.2030029296875,6.6192626953125
2021-09-22 21:18:26.875896,0.0810546875,0.10546875,1.3662109375,1.527099609375,1.1260986328125,6.624755859375
2021-09-22 21:18:26.885696,0.04150390625,0.00048828125,0.91650390625,1.40625,0.999755859375,6.7510986328125
2021-09-22 21:18:26.895841,0.04150390625,0.06884765625,0.98193359375,1.351318359375,0.8734130859375,6.954345703125
2021-09-22 21:18:26.905732,0.029296875,0.02734375,1.06298828125,1.307373046875,0.7745361328125,7.1905517578125
2021-09-22 21:18:26.915849,0.08251953125,0.056640625,1.13525390625,1.2908935546875,0.6591796875,7.481689453125
2021-09-22 21:18:26.925746,0.11962890625,0.0498046875,1.01806640625,1.29638671875,0.4998779296875,7.8497314453125
2021-09-22 21:18:26.935573,0.08349609375,0.0234375,0.98974609375,1.3018798828125,0.3460693359375,8.2672119140625
2021-09-22 21:18:26.945557,0.02490234375,-0.00146484375,1.05908203125,1.2799072265625,0.2197265625,8.690185546875
2021-09-22 21:18:26.955660,0.0205078125,0.02978515625,0.896484375,1.2689208984375,0.0823974609375,9.0966796875
2021-09-22 21:18:26.965519,-0.01513671875,0.0400390625,0.89453125,1.3128662109375,0.0274658203125,9.4207763671875
2021-09-22 21:18:26.975427,-0.08984375,0.08056640625,0.91455078125,1.395263671875,0.032958984375,9.6514892578125
2021-09-22 21:18:26.985371,-0.04345703125,0.0703125,0.7666015625,1.5325927734375,0.032958984375,9.84375
2021-09-22 21:18:26.995327,0.0771484375,0.0078125,0.90673828125,1.6973876953125,0.0054931640625,10.052490234375
2021-09-22 21:18:27.005420,0.10791015625,0.015625,0.94384765625,1.8511962890625,-0.02197265625,10.2886962890625
2021-09-22 21:18:27.015090,0.025390625,0.0322265625,1.06396484375,1.9610595703125,-0.0164794921875,10.5084228515625
2021-09-22 21:18:27.025399,-0.00146484375,0.0048828125,1.064453125,2.076416015625,0.0,10.711669921875
2021-09-22 21:18:27.035783,-0.00146484375,0.0048828125,1.064453125,2.186279296875,0.010986328125,10.9149169921875
2021-09-22 21:18:27.045288,-0.025390625,0.0673828125,0.947265625,2.3291015625,0.0439453125,11.063232421875
2021-09-22 21:18:27.055462,-0.015625,0.0498046875,0.9873046875,2.4609375,0.098876953125,11.09619140625
2021-09-22 21:18:27.065259,0.11376953125,0.09716796875,1.4384765625,2.5543212890625,0.087890625,11.0137939453125
2021-09-22 21:18:27.075312,0.03564453125,-0.0244140625,1.19580078125,2.493896484375,-0.054931640625,10.9423828125
2021-09-22 21:18:27.085313,-0.04052734375,-0.1728515625,0.98974609375,2.296142578125,-0.2691650390625,10.9039306640625
2021-09-22 21:18:27.095327,0.01513671875,-0.03955078125,0.89013671875,2.0489501953125,-0.472412109375,10.7611083984375
2021-09-22 21:18:27.105110,-0.0546875,-0.0234375,0.8935546875,1.856689453125,-0.6207275390625,10.48095703125
2021-09-22 21:18:27.115177,-0.0947265625,-0.005859375,1.00048828125,1.746826171875,-0.7855224609375,10.118408203125
2021-09-22 21:18:27.125226,-0.05078125,-0.0224609375,0.931640625,1.6259765625,-0.9613037109375,9.6954345703125
2021-09-22 21:18:27.135133,-0.0009765625,0.044921875,0.87890625,1.51611328125,-1.1590576171875,9.25048828125
2021-09-22 21:18:27.144934,-0.017578125,0.05224609375,0.90625,1.417236328125,-1.3787841796875,8.843994140625
2021-09-22 21:18:27.154969,-0.06640625,0.0322265625,0.828125,1.329345703125,-1.5765380859375,8.4814453125
2021-09-22 21:18:27.164937,-0.0146484375,0.06201171875,0.8076171875,1.285400390625,-1.7852783203125,8.15185546875
2021-09-22 21:18:27.175058,-0.05810546875,0.0283203125,0.88232421875,1.25244140625,-1.944580078125,7.8387451171875
2021-09-22 21:18:27.184988,-0.02490234375,0.0322265625,1.06494140625,1.20849609375,-2.076416015625,7.4871826171875
2021-09-22 21:18:27.194866,0.01318359375,-0.0126953125,1.048828125,1.087646484375,-2.1588134765625,7.108154296875
2021-09-22 21:18:27.204924,0.09765625,0.0078125,0.8955078125,0.87890625,-2.230224609375,6.7730712890625
2021-09-22 21:18:27.214937,0.10400390625,0.0146484375,1.0126953125,0.63720703125,-2.2686767578125,6.5313720703125
2021-09-22 21:18:27.224873,0.0703125,0.0009765625,0.970703125,0.384521484375,-2.26318359375,6.3995361328125
2021-09-22 21:18:27.235448,0.1103515625,-0.01806640625,1.1728515625,0.1318359375,-2.208251953125,6.339111328125
2021-09-22 21:18:27.244800,0.1171875,0.0205078125,1.03564453125,-0.19775390625,-2.1478271484375,6.4105224609375
2021-09-22 21:18:27.254808,0.08447265625,0.01513671875,0.93017578125,-0.4888916015625,-2.0819091796875,6.5972900390625
2021-09-22 21:18:27.264741,0.06982421875,0.04248046875,0.9638671875,-0.714111328125,-1.966552734375,6.8280029296875
2021-09-22 21:18:27.274592,0.103515625,0.1064453125,1.3251953125,-0.8074951171875,-1.8072509765625,7.108154296875
2021-09-22 21:18:27.284526,0.10205078125,0.02001953125,0.9892578125,-0.7965087890625,-1.7303466796875,7.49267578125
2021-09-22 21:18:27.294370,0.146484375,-0.0625,1.0869140625,-0.7196044921875,-1.69189453125,7.9486083984375
2021-09-22 21:18:27.304610,0.0400390625,-0.03173828125,1.23291015625,-0.5767822265625,-1.60400390625,8.404541015625
2021-09-22 21:18:27.314440,-0.06591796875,-0.01806640625,0.9560546875,-0.318603515625,-1.373291015625,8.822021484375
2021-09-22 21:18:27.324360,-0.13671875,0.02880859375,0.84814453125,-0.0164794921875,-0.9613037109375,9.1461181640625
2021-09-22 21:18:27.334287,0.0048828125,-0.046875,1.630859375,0.3350830078125,-0.5108642578125,9.3218994140625
2021-09-22 21:18:27.344182,0.06298828125,-0.09912109375,0.845703125,0.362548828125,-0.2252197265625,9.4317626953125
2021-09-22 21:18:27.354063,0.14697265625,-0.0322265625,1.4375,0.4229736328125,-0.1318359375,9.5965576171875
2021-09-22 21:18:27.364171,0.00439453125,-0.0322265625,0.5146484375,0.450439453125,-0.2801513671875,9.9151611328125
2021-09-22 21:18:27.374055,0.01611328125,0.07373046875,0.76953125,0.384521484375,-0.4229736328125,10.2392578125
2021-09-22 21:18:27.383977,0.052734375,0.15185546875,1.02490234375,0.3515625,-0.5108642578125,10.52490234375
2021-09-22 21:18:27.394054,-0.0048828125,-0.0947265625,1.13818359375,0.59326171875,-0.5548095703125,10.755615234375
2021-09-22 21:18:27.404117,-0.00390625,0.017578125,1.42822265625,0.615234375,-0.604248046875,10.87646484375
2021-09-22 21:18:27.414012,0.05810546875,0.00927734375,1.40380859375,0.604248046875,-0.714111328125,11.0028076171875
2021-09-22 21:18:27.424126,-0.0068359375,-0.0771484375,1.021484375,0.6976318359375,-0.7855224609375,11.304931640625
2021-09-22 21:18:27.433933,0.07568359375,-0.0478515625,1.09619140625,0.7305908203125,-0.823974609375,11.7608642578125
2021-09-22 21:18:27.443799,0.14794921875,0.19775390625,0.607421875,0.5657958984375,-0.933837890625,12.205810546875
2021-09-22 21:18:27.453891,0.01904296875,0.02978515625,0.55126953125,0.52734375,-1.0711669921875,12.557373046875
2021-09-22 21:18:27.463781,-0.0625,0.013671875,0.6650390625,0.5218505859375,-1.142578125,12.7825927734375
2021-09-22 21:18:27.473796,0.02392578125,0.076171875,0.779296875,0.5328369140625,-1.1260986328125,12.930908203125
2021-09-22 21:18:27.483677,-0.00439453125,0.1611328125,0.61572265625,0.6097412109375,-1.0931396484375,13.02978515625
2021-09-22 21:18:27.493784,0.01220703125,0.26953125,0.11181640625,0.7965087890625,-1.0491943359375,13.172607421875
2021-09-22 21:18:27.503918,-0.20166015625,0.11328125,1.20849609375,0.9503173828125,-0.9063720703125,13.3428955078125
2021-09-22 21:18:27.513552,-0.14697265625,0.32177734375,1.14306640625,0.736083984375,-0.6756591796875,13.458251953125
2021-09-22 21:18:27.523735,-0.2236328125,0.21435546875,1.57177734375,0.6317138671875,-0.2911376953125,13.5076904296875
2021-09-22 21:18:27.533618,-0.02587890625,-0.09619140625,1.69775390625,0.714111328125,-0.0384521484375,13.3758544921875
2021-09-22 21:18:27.543516,-0.21923828125,-0.13671875,1.61474609375,0.7470703125,-0.02197265625,12.8704833984375
2021-09-22 21:18:27.553577,-0.2783203125,-0.09423828125,1.083984375,0.714111328125,-0.24169921875,11.97509765625
2021-09-22 21:18:27.563457,-0.02099609375,0.0,0.72802734375,0.7415771484375,-0.46142578125,10.8984375
2021-09-22 21:18:27.573217,0.09228515625,0.04931640625,0.28125,0.8734130859375,-0.6427001953125,9.8602294921875
2021-09-22 21:18:27.583178,0.1220703125,0.0205078125,0.49169921875,0.9393310546875,-0.72509765625,8.953857421875
2021-09-22 21:18:27.593182,0.15625,0.08251953125,0.98974609375,0.8404541015625,-0.8074951171875,8.3056640625
2021-09-22 21:18:27.603093,0.04541015625,0.06298828125,1.02294921875,0.823974609375,-0.8843994140625,7.9266357421875
2021-09-22 21:18:27.612931,0.10791015625,0.06201171875,1.26171875,0.8514404296875,-1.021728515625,7.822265625
2021-09-22 21:18:27.622876,0.1796875,0.0888671875,1.07666015625,0.8514404296875,-1.142578125,8.0859375
2021-09-22 21:18:27.632980,0.19287109375,0.025390625,1.06396484375,0.72509765625,-1.2579345703125,8.8330078125
2021-09-22 21:18:27.642894,-0.072265625,0.4169921875,1.478515625,0.7196044921875,-1.3677978515625,9.95361328125
2021-09-22 21:18:27.652945,-0.1630859375,0.03369140625,1.53857421875,0.791015625,-1.3018798828125,11.14013671875
2021-09-22 21:18:27.662732,-0.04248046875,-0.185546875,1.0107421875,0.736083984375,-1.153564453125,12.1783447265625
2021-09-22 21:18:27.672643,-0.037109375,-0.169921875,1.24072265625,0.8294677734375,-0.966796875,12.9144287109375
2021-09-22 21:18:27.682736,-0.03466796875,-0.25537109375,1.23193359375,0.911865234375,-0.90087890625,13.348388671875
2021-09-22 21:18:27.692590,-0.03173828125,-0.1845703125,0.94189453125,0.9283447265625,-0.90087890625,13.5626220703125
2021-09-22 21:18:27.702871,-0.00634765625,-0.16455078125,0.97314453125,0.9722900390625,-0.9283447265625,13.77685546875
2021-09-22 21:18:27.712811,-0.11181640625,-0.04833984375,0.7958984375,1.0107421875,-0.977783203125,14.2108154296875
2021-09-22 21:18:27.722472,-0.15673828125,0.03857421875,0.517578125,1.07666015625,-1.0052490234375,14.908447265625
2021-09-22 21:18:27.733268,-0.015625,0.0732421875,0.1083984375,1.0821533203125,-0.9832763671875,15.6280517578125
2021-09-22 21:18:27.742649,-0.0517578125,0.20654296875,0.4423828125,1.087646484375,-0.8349609375,16.204833984375
2021-09-22 21:18:27.752602,-0.03466796875,0.13720703125,1.14404296875,1.373291015625,-0.72509765625,16.5948486328125
2021-09-22 21:18:27.762416,-0.076171875,0.2197265625,1.13330078125,1.51611328125,-0.7415771484375,16.9189453125
2021-09-22 21:18:27.772389,-0.0478515625,0.10791015625,2.0556640625,1.669921875,-0.780029296875,17.2979736328125
2021-09-22 21:18:27.782345,0.01318359375,-0.09375,1.431640625,1.9171142578125,-0.7965087890625,17.81982421875
2021-09-22 21:18:27.792345,-0.0380859375,-0.0400390625,1.6064453125,2.0050048828125,-0.7470703125,18.544921875
2021-09-22 21:18:27.802484,0.0302734375,0.04541015625,1.44384765625,1.944580078125,-0.5657958984375,19.390869140625
2021-09-22 21:18:27.812326,0.228515625,0.00439453125,0.7138671875,1.878662109375,-0.230712890625,20.3411865234375
2021-09-22 21:18:27.822358,0.23828125,-0.259765625,0.59228515625,1.8402099609375,0.0494384765625,21.4288330078125
2021-09-22 21:18:27.832489,0.0244140625,-0.07421875,0.6240234375,1.461181640625,0.3350830078125,22.5714111328125
2021-09-22 21:18:27.842223,0.3125,-0.0576171875,0.46875,1.12060546875,0.538330078125,23.6370849609375
2021-09-22 21:18:27.852222,0.50390625,-0.205078125,1.173828125,1.1700439453125,0.5328369140625,24.4720458984375
2021-09-22 21:18:27.862232,0.10546875,-0.2578125,1.18408203125,1.2359619140625,0.3790283203125,25.0433349609375
2021-09-22 21:18:27.872018,-0.095703125,-0.126953125,0.70166015625,1.131591796875,0.208740234375,25.2081298828125
2021-09-22 21:18:27.881845,-0.02685546875,0.03955078125,1.34716796875,1.0491943359375,0.15380859375,24.818115234375
2021-09-22 21:18:27.892012,-0.0361328125,0.02099609375,1.044921875,1.0491943359375,0.1812744140625,23.9117431640625
2021-09-22 21:18:27.902047,-0.05126953125,0.07470703125,0.99072265625,0.889892578125,0.1812744140625,22.686767578125
2021-09-22 21:18:27.911873,-0.0576171875,0.0947265625,0.8310546875,0.692138671875,0.087890625,21.4013671875
2021-09-22 21:18:27.921909,-0.0869140625,0.08154296875,0.59228515625,0.59326171875,-0.0494384765625,20.159912109375
2021-09-22 21:18:27.931849,-0.14111328125,0.041015625,0.24462890625,0.5548095703125,-0.208740234375,18.9569091796875
2021-09-22 21:18:27.941929,-0.05810546875,0.0595703125,-0.1181640625,153.2427978515625,-0.3460693359375,17.940673828125
2021-09-22 21:18:27.952029,0.1201171875,0.099609375,0.91259765625,153.270263671875,-0.0274658203125,18.45703125
2021-09-22 21:18:27.961784,0.11376953125,0.07763671875,1.19921875,153.2537841796875,-0.0164794921875,18.555908203125
2021-09-22 21:18:27.971734,0.17041015625,-0.076171875,1.25439453125,-3.4716796875,-0.17578125,18.28125
2021-09-22 21:18:27.981601,0.1826171875,0.14501953125,1.7548828125,-3.416748046875,-0.1702880859375,18.995361328125
2021-09-22 21:18:27.991529,-0.03759765625,0.0390625,2.18212890625,-3.350830078125,-0.098876953125,19.9786376953125
2021-09-22 21:18:28.001805,-0.1826171875,0.12060546875,1.7958984375,-3.350830078125,0.0,21.0113525390625
2021-09-22 21:18:28.011658,-0.14892578125,-0.05126953125,1.375,-3.2958984375,0.0,21.917724609375
2021-09-22 21:18:28.021158,-0.1279296875,-0.03515625,1.18408203125,-3.14208984375,0.0823974609375,22.60986328125
2021-09-22 21:18:28.031050,-0.03076171875,-0.080078125,0.9013671875,-3.109130859375,0.1812744140625,23.115234375
2021-09-22 21:18:28.041324,0.04052734375,-0.03466796875,0.63330078125,-3.1146240234375,0.2911376953125,23.5107421875
2021-09-22 21:18:28.051407,0.0576171875,-0.0302734375,0.33447265625,-3.1585693359375,0.3350830078125,23.9501953125
2021-09-22 21:18:28.061352,-0.03564453125,0.02734375,0.412109375,-3.131103515625,0.3515625,24.54345703125
2021-09-22 21:18:28.071247,-0.044921875,-0.033203125,0.23486328125,-3.0487060546875,0.3515625,25.301513671875
2021-09-22 21:18:28.081332,-0.01220703125,0.021484375,0.05126953125,-3.043212890625,0.384521484375,26.03759765625
2021-09-22 21:18:28.091374,0.0380859375,0.02734375,0.66943359375,-2.977294921875,0.4559326171875,26.575927734375
2021-09-22 21:18:28.101449,0.05322265625,-0.041015625,1.3564453125,-2.779541015625,0.4888916015625,26.861572265625
2021-09-22 21:18:28.111192,-0.02685546875,0.05712890625,1.78466796875,-2.74658203125,0.439453125,27.0208740234375
2021-09-22 21:18:28.121271,-0.02294921875,0.12744140625,2.1865234375,-2.7081298828125,0.4229736328125,27.2515869140625
2021-09-22 21:18:28.131120,0.00146484375,-0.02783203125,1.9033203125,-2.581787109375,0.4339599609375,27.762451171875
2021-09-22 21:18:28.140988,0.03369140625,0.0068359375,1.3896484375,-2.5982666015625,0.46142578125,28.54248046875
2021-09-22 21:18:28.151029,0.02734375,-0.00244140625,1.2197265625,-2.5653076171875,0.54931640625,29.46533203125
2021-09-22 21:18:28.161094,0.02001953125,-0.05224609375,0.6845703125,-2.5103759765625,0.63720703125,30.487060546875
2021-09-22 21:18:28.171009,0.0400390625,-0.07080078125,0.640625,-2.5323486328125,0.703125,31.629638671875
2021-09-22 21:18:28.180913,0.05224609375,-0.14306640625,0.2705078125,-2.5872802734375,0.7635498046875,32.8216552734375
2021-09-22 21:18:28.191083,-0.1259765625,-0.11962890625,-0.19580078125,-2.7630615234375,0.9503173828125,33.9862060546875
2021-09-22 21:18:28.201316,0.12939453125,0.111328125,0.37646484375,-2.9937744140625,1.2030029296875,35.0189208984375
2021-09-22 21:18:28.211115,0.23486328125,0.09130859375,1.17333984375,-3.021240234375,1.38427734375,35.74951171875
2021-09-22 21:18:28.220790,0.05224609375,-0.02490234375,0.95654296875,-2.92236328125,1.3787841796875,36.0296630859375
2021-09-22 21:18:28.231400,-0.02392578125,-0.00537109375,1.80224609375,-3.0267333984375,1.2579345703125,35.70556640625
2021-09-22 21:18:28.240763,-0.037109375,0.00048828125,1.6884765625,-3.0267333984375,1.153564453125,34.793701171875
2021-09-22 21:18:28.250707,-0.0166015625,-0.00830078125,1.39306640625,-3.0596923828125,1.087646484375,33.541259765625
2021-09-22 21:18:28.260666,-0.025390625,0.060546875,0.78173828125,-3.197021484375,0.98876953125,32.2393798828125
2021-09-22 21:18:28.270556,-0.08056640625,0.017578125,0.482421875,-3.262939453125,0.87890625,30.9649658203125
2021-09-22 21:18:28.280501,-0.12890625,0.06103515625,0.16162109375,-3.306884765625,0.7525634765625,29.7015380859375
2021-09-22 21:18:28.290695,-0.08642578125,0.05224609375,0.15576171875,-3.251953125,0.6756591796875,28.65234375
2021-09-22 21:18:28.300783,-0.01171875,0.08642578125,0.66796875,-3.153076171875,0.670166015625,28.004150390625
2021-09-22 21:18:28.310524,0.080078125,0.06005859375,1.236328125,-3.0322265625,0.7635498046875,27.7020263671875
2021-09-22 21:18:28.320375,0.07373046875,0.041015625,1.041015625,-2.9827880859375,0.8843994140625,27.740478515625
2021-09-22 21:18:28.330211,0.1025390625,-0.2568359375,1.1650390625,-2.8839111328125,1.03271484375,28.2293701171875
2021-09-22 21:18:28.340326,-0.1083984375,0.1640625,1.7783203125,-3.0926513671875,0.9942626953125,29.1632080078125
2021-09-22 21:18:28.350254,-0.068359375,0.00341796875,2.31396484375,-3.0047607421875,0.911865234375,30.2288818359375
2021-09-22 21:18:28.360361,-0.12353515625,-0.0224609375,1.693359375,-3.0596923828125,0.81298828125,31.1737060546875
2021-09-22 21:18:28.370317,0.00634765625,0.03076171875,1.203125,-3.087158203125,0.867919921875,31.8768310546875
2021-09-22 21:18:28.380183,-0.0205078125,0.05615234375,1.09130859375,-3.05419921875,0.9173583984375,32.36572265625
2021-09-22 21:18:28.390083,-0.0302734375,0.0087890625,0.76708984375,-2.933349609375,0.977783203125,32.71728515625
2021-09-22 21:18:28.400188,0.07275390625,-0.05029296875,0.3798828125,-2.8948974609375,1.0162353515625,33.0908203125
2021-09-22 21:18:28.410230,0.056640625,-0.03466796875,0.408203125,-2.8729248046875,1.065673828125,33.6181640625
2021-09-22 21:18:28.420071,0.009765625,-0.03271484375,0.24267578125,-2.83447265625,1.07666015625,34.3267822265625
2021-09-22 21:18:28.430029,0.00537109375,0.0244140625,-0.009765625,-2.8179931640625,1.0986328125,35.0299072265625
2021-09-22 21:18:28.440126,0.005859375,0.04150390625,0.61962890625,-2.757568359375,1.16455078125,35.5572509765625
2021-09-22 21:18:28.449990,0.03369140625,-0.02587890625,1.27001953125,-2.559814453125,1.2030029296875,35.83740234375
2021-09-22 21:18:28.459997,-0.00341796875,0.072265625,1.81787109375,-2.537841796875,1.175537109375,35.9857177734375
2021-09-22 21:18:28.469899,0.01318359375,0.107421875,2.06884765625,-2.48291015625,1.1590576171875,36.2054443359375
2021-09-22 21:18:28.479974,0.01318359375,-0.03173828125,2.03564453125,-2.3345947265625,1.142578125,36.727294921875
2021-09-22 21:18:28.489842,0.00439453125,-0.015625,1.3466796875,-2.3236083984375,1.131591796875,37.5457763671875
2021-09-22 21:18:28.499858,0.03076171875,0.00244140625,1.24755859375,-2.26318359375,1.2030029296875,38.5125732421875
2021-09-22 21:18:28.509832,0.00439453125,-0.0126953125,0.65576171875,-2.186279296875,1.2799072265625,39.5672607421875
2021-09-22 21:18:28.519881,0.0166015625,-0.03515625,0.74462890625,-2.17529296875,1.318359375,40.7318115234375
2021-09-22 21:18:28.529770,0.02294921875,-0.13037109375,0.30029296875,-2.186279296875,1.3348388671875,41.9622802734375
2021-09-22 21:18:28.539843,-0.13671875,-0.1806640625,-0.169921875,-2.3126220703125,1.47216796875,43.1817626953125
2021-09-22 21:18:28.549921,0.2001953125,0.087890625,0.634765625,-2.6202392578125,1.7523193359375,44.263916015625
2021-09-22 21:18:28.559693,0.306640625,0.05615234375,0.97119140625,-2.669677734375,1.9720458984375,45.0054931640625
2021-09-22 21:18:28.569543,0.021484375,-0.04345703125,0.94189453125,-2.5213623046875,1.9830322265625,45.28564453125
2021-09-22 21:18:28.579533,-0.03662109375,0.0302734375,1.55712890625,-2.647705078125,1.8731689453125,44.989013671875
2021-09-22 21:18:28.589460,-0.03955078125,0.021484375,1.6796875,-2.669677734375,1.7962646484375,44.12109375
2021-09-22 21:18:28.599673,0.01123046875,-0.00341796875,1.31298828125,-2.669677734375,1.7633056640625,42.9071044921875
2021-09-22 21:18:28.609524,0.005859375,0.02880859375,0.8984375,-2.83447265625,1.6644287109375,41.6217041015625
2021-09-22 21:18:28.619401,-0.10986328125,0.04931640625,0.5126953125,-2.9498291015625,1.527099609375,40.3802490234375
2021-09-22 21:18:28.629330,-0.138671875,0.07177734375,0.263671875,-3.021240234375,1.38427734375,39.1497802734375
2021-09-22 21:18:28.639628,-0.08349609375,0.064453125,0.04931640625,-2.9827880859375,1.285400390625,38.1170654296875
2021-09-22 21:18:28.649475,0.01904296875,0.0927734375,0.69580078125,-2.8839111328125,1.2744140625,37.4908447265625
2021-09-22 21:18:28.659265,0.08203125,0.03955078125,1.22607421875,-2.7850341796875,1.3458251953125,37.265625
2021-09-22 21:18:28.669145,0.08544921875,0.04052734375,1.07177734375,-2.757568359375,1.4556884765625,37.3974609375
2021-09-22 21:18:28.679102,0.17236328125,-0.3681640625,1.15087890625,-2.691650390625,1.56005859375,37.94677734375
2021-09-22 21:18:28.689185,-0.01806640625,0.220703125,2.248046875,-2.757568359375,1.5216064453125,38.9190673828125
2021-09-22 21:18:28.699267,-0.13916015625,0.07763671875,1.8759765625,-2.691650390625,1.5106201171875,39.96826171875
2021-09-22 21:18:28.709169,-0.1318359375,-0.1708984375,1.29296875,-2.735595703125,1.4501953125,40.880126953125
2021-09-22 21:18:28.719056,-0.046875,0.02294921875,1.3388671875,-2.70263671875,1.4996337890625,41.55029296875
2021-09-22 21:18:28.729536,-0.03076171875,-0.015625,1.0478515625,-2.6312255859375,1.5435791015625,42.03369140625
2021-09-22 21:18:28.738987,-0.02001953125,-0.03173828125,0.65576171875,-2.5543212890625,1.60400390625,42.396240234375
2021-09-22 21:18:28.748886,0.05810546875,-0.06640625,0.4287109375,-2.515869140625,1.6259765625,42.7862548828125
2021-09-22 21:18:28.758808,0.01953125,-0.00146484375,0.4619140625,-2.5048828125,1.658935546875,43.341064453125
2021-09-22 21:18:28.768850,-0.0244140625,-0.0146484375,0.2919921875,-2.43896484375,1.680908203125,44.0826416015625
2021-09-22 21:18:28.778850,-0.01171875,0.00634765625,0.0107421875,-2.3785400390625,1.702880859375,44.82421875
2021-09-22 21:18:28.789100,0.02197265625,0.04931640625,0.4921875,-2.3236083984375,1.768798828125,45.384521484375
2021-09-22 21:18:28.798949,0.04736328125,-0.0244140625,1.25927734375,-2.1148681640625,1.7962646484375,45.6866455078125
2021-09-22 21:18:28.808883,0.013671875,0.0712890625,1.78955078125,-2.054443359375,1.746826171875,45.8404541015625
2021-09-22 21:18:28.818749,0.0107421875,0.11669921875,2.05615234375,-1.988525390625,1.7083740234375,46.0382080078125
2021-09-22 21:18:28.828646,0.029296875,-0.0146484375,2.052734375,-1.812744140625,1.6864013671875,46.51611328125
2021-09-22 21:18:28.838707,0.0458984375,0.015625,1.34423828125,-1.7742919921875,1.6644287109375,47.2796630859375
2021-09-22 21:18:28.848636,-0.015625,0.001953125,1.36962890625,-1.6754150390625,1.7083740234375,48.197021484375
2021-09-22 21:18:28.858574,-0.03173828125,-0.00244140625,0.89208984375,-1.6314697265625,1.7742919921875,49.19677734375
2021-09-22 21:18:28.868424,0.025390625,0.00439453125,0.7158203125,-1.669921875,1.8621826171875,50.2899169921875
2021-09-22 21:18:28.878576,0.07373046875,-0.14501953125,0.3896484375,-1.636962890625,1.93359375,51.470947265625
2021-09-22 21:18:28.888406,-0.078125,-0.20751953125,-0.34521484375,-1.7852783203125,2.098388671875,52.6739501953125
2021-09-22 21:18:28.898628,0.25927734375,0.09521484375,0.71728515625,-2.1478271484375,2.373046875,53.778076171875
2021-09-22 21:18:28.908933,0.37646484375,0.04052734375,0.84765625,-2.197265625,2.5323486328125,54.5745849609375
2021-09-22 21:18:28.918809,0.0595703125,-0.13720703125,0.759765625,-2.010498046875,2.493896484375,54.931640625
2021-09-22 21:18:28.928677,-0.07470703125,-0.04248046875,1.50830078125,-2.120361328125,2.373046875,54.7503662109375
2021-09-22 21:18:28.938617,-0.0322265625,-0.0029296875,1.74072265625,-2.17529296875,2.3236083984375,53.975830078125
2021-09-22 21:18:28.948631,-0.00146484375,-0.04052734375,1.365234375,-2.17529296875,2.3345947265625,52.80029296875
2021-09-22 21:18:28.958488,-0.001953125,0.04443359375,0.92626953125,-2.39501953125,2.2467041015625,51.50390625
2021-09-22 21:18:28.968470,-0.11669921875,0.13525390625,0.525390625,-2.5543212890625,2.120361328125,50.262451171875
2021-09-22 21:18:28.978382,-0.14306640625,0.1015625,0.28857421875,-2.625732421875,1.9940185546875,49.02099609375
2021-09-22 21:18:28.988648,-0.08740234375,0.060546875,-0.1220703125,153.6163330078125,1.8896484375,47.9443359375
2021-09-22 21:18:28.998564,0.0068359375,0.11181640625,0.69482421875,153.7811279296875,2.1533203125,48.5760498046875
2021-09-22 21:18:29.008374,0.1279296875,0.06640625,1.22265625,3.1036376953125,2.1917724609375,48.856201171875
2021-09-22 21:18:29.018487,0.08447265625,0.01611328125,1.06396484375,3.1695556640625,2.3236083984375,48.9605712890625
2021-09-22 21:18:29.028193,0.11279296875,-0.25634765625,1.2685546875,3.2794189453125,2.406005859375,49.4659423828125
2021-09-22 21:18:29.038318,-0.07958984375,0.0537109375,1.720703125,3.131103515625,2.2906494140625,50.3778076171875
2021-09-22 21:18:29.048141,-0.03564453125,0.08251953125,2.13916015625,3.2464599609375,2.1148681640625,51.4324951171875
2021-09-22 21:18:29.058126,-0.13720703125,-0.07177734375,1.677734375,3.2080078125,1.8896484375,52.3663330078125
2021-09-22 21:18:29.068098,-0.044921875,0.013671875,1.2646484375,3.2244873046875,1.8402099609375,53.074951171875
2021-09-22 21:18:29.078137,-0.05712890625,-0.00390625,1.02978515625,3.251953125,1.834716796875,53.580322265625
2021-09-22 21:18:29.088228,-0.0244140625,0.00244140625,0.7705078125,3.3673095703125,1.8731689453125,53.9593505859375
2021-09-22 21:18:29.098078,0.0751953125,-0.04345703125,0.38671875,3.416748046875,1.878662109375,54.349365234375
2021-09-22 21:18:29.108115,0.0361328125,-0.01171875,0.45947265625,3.44970703125,1.86767578125,54.9041748046875
2021-09-22 21:18:29.118034,-0.02001953125,-0.02978515625,0.27099609375,3.515625,1.8017578125,55.634765625
2021-09-22 21:18:29.127907,0.00634765625,0.0009765625,0.0244140625,3.548583984375,1.73583984375,56.3763427734375
2021-09-22 21:18:29.137997,0.029296875,0.037109375,0.52880859375,3.5870361328125,1.7193603515625,56.9366455078125
2021-09-22 21:18:29.147981,0.05615234375,-0.03564453125,1.2373046875,3.7738037109375,1.702880859375,57.2332763671875
2021-09-22 21:18:29.157853,0.0234375,0.06689453125,1.814453125,3.80126953125,1.6534423828125,57.37060546875
2021-09-22 21:18:29.167679,0.041015625,0.11328125,1.998046875,3.8397216796875,1.60400390625,57.5408935546875
2021-09-22 21:18:29.177767,0.04638671875,-0.0087890625,2.11572265625,3.97705078125,1.5380859375,58.0023193359375
2021-09-22 21:18:29.187707,0.0341796875,-0.00732421875,1.3564453125,3.988037109375,1.4501953125,58.7548828125
2021-09-22 21:18:29.197752,0.0546875,0.0087890625,1.28857421875,4.0264892578125,1.417236328125,59.677734375
2021-09-22 21:18:29.207514,0.0380859375,-0.00732421875,0.65576171875,4.097900390625,1.38427734375,60.699462890625
2021-09-22 21:18:29.217676,0.03466796875,-0.02099609375,0.70263671875,4.119873046875,1.29638671875,61.842041015625
2021-09-22 21:18:29.228237,0.0458984375,-0.10498046875,0.23828125,4.1143798828125,1.175537109375,63.0780029296875
2021-09-22 21:18:29.237628,-0.103515625,-0.14404296875,0.12255859375,4.0264892578125,1.142578125,64.346923828125
2021-09-22 21:18:29.247766,0.1591796875,0.04150390625,0.8623046875,3.71337890625,1.2579345703125,65.5224609375
2021-09-22 21:18:29.257450,0.26953125,0.02001953125,0.4716796875,3.614501953125,1.395263671875,66.357421875
2021-09-22 21:18:29.267604,0.1025390625,-0.1396484375,0.9931640625,3.7628173828125,1.3787841796875,66.7034912109375
2021-09-22 21:18:29.277576,-0.07568359375,-0.04150390625,1.580078125,3.680419921875,1.285400390625,66.478271484375
2021-09-22 21:18:29.287635,-0.0576171875,-0.0166015625,1.7021484375,3.5980224609375,1.2799072265625,65.687255859375
2021-09-22 21:18:29.297567,-0.0654296875,-0.03955078125,1.2900390625,3.62548828125,1.373291015625,64.51171875
2021-09-22 21:18:29.307284,-0.0341796875,0.03759765625,1.00732421875,3.438720703125,1.4447021484375,63.2318115234375
2021-09-22 21:18:29.317148,-0.07666015625,0.14892578125,0.47607421875,3.31787109375,1.4886474609375,61.973876953125
2021-09-22 21:18:29.327287,-0.10107421875,0.08740234375,0.34716796875,3.2904052734375,1.5325927734375,60.71044921875
2021-09-22 21:18:29.337274,-0.052734375,0.00439453125,0.0205078125,3.36181640625,1.58203125,59.622802734375
2021-09-22 21:18:29.347270,0.029296875,0.11865234375,0.68359375,3.482666015625,1.69189453125,58.919677734375
2021-09-22 21:18:29.357137,0.1337890625,0.05615234375,1.09326171875,3.614501953125,1.82373046875,58.5955810546875
2021-09-22 21:18:29.367094,0.0859375,0.013671875,1.056640625,3.7298583984375,1.9720458984375,58.634033203125
2021-09-22 21:18:29.377086,0.07470703125,-0.28369140625,1.2626953125,3.856201171875,2.1038818359375,59.0625
2021-09-22 21:18:29.386984,-0.07177734375,0.0595703125,1.65966796875,3.6859130859375,2.0379638671875,59.91943359375
2021-09-22 21:18:29.396919,-0.07958984375,-0.11865234375,2.01416015625,3.7408447265625,1.8292236328125,60.9466552734375
2021-09-22 21:18:29.407061,-0.18359375,-0.05322265625,1.65673828125,3.66943359375,1.527099609375,61.885986328125
2021-09-22 21:18:29.416943,-0.115234375,0.06298828125,1.37158203125,3.636474609375,1.42822265625,62.6165771484375
2021-09-22 21:18:29.426904,-0.05810546875,0.15771484375,1.2197265625,3.6199951171875,1.3787841796875,63.1109619140625
2021-09-22 21:18:29.436775,-0.0341796875,0.01953125,0.865234375,3.75732421875,1.4227294921875,63.468017578125
2021-09-22 21:18:29.446767,0.0810546875,0.00537109375,0.41015625,3.8067626953125,1.4666748046875,63.841552734375
2021-09-22 21:18:29.456846,0.0849609375,-0.00146484375,0.44287109375,3.8726806640625,1.494140625,64.3798828125
2021-09-22 21:18:29.466892,-0.0205078125,-0.03857421875,0.27001953125,3.9495849609375,1.439208984375,65.115966796875
2021-09-22 21:18:29.476918,-0.00341796875,-0.04931640625,0.015625,3.9935302734375,1.351318359375,65.885009765625
2021-09-22 21:18:29.486916,0.03466796875,0.03076171875,0.4658203125,3.9825439453125,1.29638671875,66.4892578125
2021-09-22 21:18:29.496715,0.06396484375,-0.04736328125,1.15576171875,4.130859375,1.263427734375,66.8243408203125
2021-09-22 21:18:29.506540,0.05224609375,0.06689453125,1.740234375,4.15283203125,1.2249755859375,66.9671630859375
2021-09-22 21:18:29.516471,0.07763671875,0.1083984375,1.859375,4.163818359375,1.1865234375,67.12646484375
2021-09-22 21:18:29.526642,0.072265625,0.0068359375,2.2099609375,4.2626953125,1.109619140625,67.576904296875
2021-09-22 21:18:29.536546,0.052734375,-0.01953125,1.3505859375,4.273681640625,0.999755859375,68.3349609375
2021-09-22 21:18:29.546522,0.04931640625,0.02734375,1.28564453125,4.28466796875,0.94482421875,69.2633056640625
2021-09-22 21:18:29.556344,0.03857421875,0.01904296875,0.68701171875,4.3231201171875,0.8953857421875,70.279541015625
2021-09-22 21:18:29.566372,0.03955078125,-0.0048828125,0.72998046875,4.3450927734375,0.802001953125,71.4111328125
2021-09-22 21:18:29.576359,0.099609375,-0.1015625,0.263671875,4.339599609375,0.648193359375,72.6470947265625
2021-09-22 21:18:29.586547,-0.169921875,-0.16748046875,-0.26171875,-147.381591796875,0.582275390625,73.93798828125
2021-09-22 21:18:29.596542,0.09716796875,0.09521484375,0.728515625,7.4432373046875,1.1041259765625,72.8778076171875
2021-09-22 21:18:29.606272,0.2138671875,0.06640625,1.08740234375,7.3663330078125,1.1041259765625,73.707275390625
2021-09-22 21:18:29.616326,0.09765625,-0.0654296875,0.8349609375,7.470703125,1.0491943359375,74.0423583984375
2021-09-22 21:18:29.626180,-0.06201171875,-0.05859375,1.70849609375,7.3773193359375,0.999755859375,73.7786865234375
2021-09-22 21:18:29.636086,-0.0751953125,-0.00048828125,1.67333984375,7.305908203125,1.0491943359375,72.9327392578125
2021-09-22 21:18:29.646164,-0.0869140625,-0.0205078125,1.3447265625,7.3004150390625,1.219482421875,71.7352294921875
2021-09-22 21:18:29.656135,-0.072265625,0.05908203125,0.99072265625,7.130126953125,1.3787841796875,70.455322265625
2021-09-22 21:18:29.666168,-0.1025390625,0.1259765625,0.57568359375,7.0257568359375,1.51611328125,69.2138671875
2021-09-22 21:18:29.676145,-0.1162109375,0.080078125,0.29296875,6.998291015625,1.658935546875,67.9449462890625
2021-09-22 21:18:29.686379,-0.06787109375,0.02880859375,-0.07373046875,158.653564453125,1.8072509765625,66.8353271484375
2021-09-22 21:18:29.696249,0.03564453125,0.08251953125,0.59375,7.91015625,1.9830322265625,67.5604248046875
2021-09-22 21:18:29.705913,0.1640625,0.05078125,1.119140625,8.0474853515625,2.1533203125,67.2308349609375
2021-09-22 21:18:29.715844,0.1015625,0.0517578125,1.09423828125,8.1463623046875,2.3291015625,67.2637939453125
2021-09-22 21:18:29.726436,0.0869140625,-0.28271484375,1.18994140625,8.294677734375,2.449951171875,67.686767578125
2021-09-22 21:18:29.735838,-0.0341796875,-0.06201171875,1.68896484375,8.140869140625,2.340087890625,68.5107421875
2021-09-22 21:18:29.745805,-0.05908203125,-0.0302734375,1.91455078125,8.19580078125,2.0599365234375,69.5379638671875
2021-09-22 21:18:29.755654,-0.17919921875,-0.1162109375,1.6201171875,8.140869140625,1.6864013671875,70.4718017578125
2021-09-22 21:18:29.765567,-0.111328125,0.05517578125,1.44189453125,8.10791015625,1.5216064453125,71.2078857421875
2021-09-22 21:18:29.775774,-0.06396484375,0.1142578125,1.19580078125,8.096923828125,1.439208984375,71.71875
2021-09-22 21:18:29.785584,-0.0244140625,0.025390625,0.833984375,8.2342529296875,1.4666748046875,72.09228515625
2021-09-22 21:18:29.795408,0.0947265625,-0.001953125,0.4267578125,8.2891845703125,1.494140625,72.4658203125
2021-09-22 21:18:29.805688,0.09521484375,-0.009765625,0.474609375,8.360595703125,1.494140625,72.9986572265625
2021-09-22 21:18:29.815529,0.00439453125,-0.05859375,0.2734375,8.4375,1.395263671875,73.7237548828125
