time,acc_x,acc_y,acc_z,roll,pitch,yaw
2021-09-22 20:54:37.762879,-0.03857421875,0.00439453125,0.99462890625,0.5328369140625,1.8402099609375,-91.38427734375
2021-09-22 20:54:37.769766,-0.0419921875,0.005859375,0.994140625,0.5218505859375,1.878662109375,-91.373291015625
2021-09-22 20:54:37.779743,-0.0419921875,0.005859375,0.9921875,0.5108642578125,1.9171142578125,-91.3677978515625
2021-09-22 20:54:37.789785,-0.04248046875,0.00634765625,0.9951171875,0.4888916015625,1.95556640625,-91.3623046875
2021-09-22 20:54:37.799692,-0.03955078125,0.00341796875,0.9912109375,0.4669189453125,1.9940185546875,-91.3568115234375
2021-09-22 20:54:37.809602,-0.03369140625,0.005859375,0.9912109375,0.4449462890625,2.021484375,-91.351318359375
2021-09-22 20:54:37.819625,-0.0361328125,0.0078125,0.98876953125,0.428466796875,2.0489501953125,-91.351318359375
2021-09-22 20:54:37.829637,-0.03564453125,0.0078125,0.98876953125,0.41748046875,2.076416015625,-91.3458251953125
2021-09-22 20:54:37.839604,-0.03857421875,0.00537109375,0.98779296875,0.406494140625,2.098388671875,-91.3458251953125
2021-09-22 20:54:37.849455,-0.04248046875,0.0029296875,0.9921875,0.3955078125,2.1148681640625,-91.351318359375
2021-09-22 20:54:37.859558,-0.0400390625,0.00146484375,0.9951171875,0.3900146484375,2.13134765625,-91.3568115234375
2021-09-22 20:54:37.869554,-0.0400390625,0.00048828125,0.99560546875,0.37353515625,2.1478271484375,-91.3623046875
2021-09-22 20:54:37.879422,-0.0380859375,-0.00146484375,0.994140625,0.3570556640625,2.1588134765625,-91.373291015625
2021-09-22 20:54:37.889352,-0.03662109375,-0.00048828125,0.9951171875,0.32958984375,2.17529296875,-91.3897705078125
2021-09-22 20:54:37.899377,-0.03759765625,-0.00244140625,0.99560546875,0.2911376953125,2.186279296875,-91.4007568359375
2021-09-22 20:54:37.909411,-0.0380859375,0.00244140625,0.99560546875,0.252685546875,2.2027587890625,-91.417236328125
2021-09-22 20:54:37.919343,-0.0380859375,0.001953125,0.99462890625,0.2032470703125,2.21923828125,-91.4337158203125
2021-09-22 20:54:37.929367,-0.0400390625,0.001953125,0.99658203125,0.1593017578125,2.2412109375,-91.4501953125
2021-09-22 20:54:37.939252,-0.0419921875,0.00146484375,0.99951171875,0.10986328125,2.26318359375,-91.47216796875
2021-09-22 20:54:37.949121,-0.04248046875,-0.00146484375,1.0029296875,0.0604248046875,2.28515625,-91.4886474609375
2021-09-22 20:54:37.959275,-0.04150390625,-0.00390625,0.99951171875,0.010986328125,2.3016357421875,-91.5106201171875
2021-09-22 20:54:37.969231,-0.041015625,-0.00244140625,1.00146484375,-0.0274658203125,2.3236083984375,-91.527099609375
2021-09-22 20:54:37.979099,-0.04345703125,-0.00390625,1.00537109375,-0.06591796875,2.3455810546875,-91.5435791015625
2021-09-22 20:54:37.989047,-0.0439453125,-0.005859375,1.00927734375,-0.10986328125,2.3675537109375,-91.56005859375
2021-09-22 20:54:37.998975,-0.04150390625,-0.0087890625,1.0107421875,-0.1483154296875,2.3895263671875,-91.5765380859375
2021-09-22 20:54:38.009058,-0.04541015625,-0.009765625,1.009765625,-0.186767578125,2.4114990234375,-91.593017578125
2021-09-22 20:54:38.018921,-0.04345703125,-0.01123046875,1.00927734375,-0.2252197265625,2.4334716796875,-91.6094970703125
2021-09-22 20:54:38.029165,-0.04296875,-0.00927734375,1.009765625,-0.263671875,2.4554443359375,-91.6204833984375
2021-09-22 20:54:38.039062,-0.044921875,-0.0068359375,1.01123046875,-0.2911376953125,2.471923828125,-91.6314697265625
2021-09-22 20:54:38.048907,-0.041015625,-0.0078125,1.00634765625,-0.3240966796875,2.493896484375,-91.6424560546875
2021-09-22 20:54:38.058816,-0.03759765625,-0.00830078125,1.01171875,-0.3570556640625,2.5048828125,-91.6534423828125
2021-09-22 20:54:38.068716,-0.04052734375,-0.0068359375,1.01025390625,-0.3900146484375,2.5213623046875,-91.6644287109375
2021-09-22 20:54:38.078685,-0.04150390625,-0.0078125,1.009765625,-0.4229736328125,2.537841796875,-91.669921875
2021-09-22 20:54:38.088768,-0.044921875,-0.0068359375,1.01025390625,-0.450439453125,2.5543212890625,-91.680908203125
2021-09-22 20:54:38.098706,-0.04736328125,-0.00830078125,1.0107421875,-0.4833984375,2.57080078125,-91.69189453125
2021-09-22 20:54:38.108607,-0.0498046875,-0.00830078125,1.01318359375,-0.50537109375,2.5872802734375,-91.702880859375
2021-09-22 20:54:38.118499,-0.05029296875,-0.0107421875,1.015625,-0.5328369140625,2.5982666015625,-91.7138671875
2021-09-22 20:54:38.128616,-0.04833984375,-0.00830078125,1.0146484375,-0.5548095703125,2.61474609375,-91.724853515625
2021-09-22 20:54:38.138547,-0.0478515625,-0.00341796875,1.013671875,-0.5767822265625,2.625732421875,-91.7413330078125
2021-09-22 20:54:38.148494,-0.04638671875,-0.00439453125,1.01318359375,-0.5987548828125,2.63671875,-91.7633056640625
2021-09-22 20:54:38.158617,-0.04541015625,-0.0087890625,1.01123046875,-0.6207275390625,2.647705078125,-91.7852783203125
2021-09-22 20:54:38.168464,-0.044921875,-0.01025390625,1.005859375,-0.63720703125,2.65869140625,-91.8017578125
2021-09-22 20:54:38.178392,-0.046875,-0.01171875,1.0068359375,-0.6536865234375,2.669677734375,-91.8292236328125
2021-09-22 20:54:38.188367,-0.04833984375,-0.01123046875,1.00830078125,-0.6646728515625,2.6806640625,-91.8511962890625
2021-09-22 20:54:38.198401,-0.05126953125,-0.01171875,1.01025390625,-0.670166015625,2.691650390625,-91.8731689453125
2021-09-22 20:54:38.208476,-0.05078125,-0.0126953125,1.01171875,-0.68115234375,2.7081298828125,-91.900634765625
2021-09-22 20:54:38.218997,-0.04931640625,-0.0146484375,1.01220703125,-0.6866455078125,2.7191162109375,-91.9281005859375
2021-09-22 20:54:38.228197,-0.048828125,-0.015625,1.0107421875,-0.692138671875,2.7301025390625,-91.95556640625
2021-09-22 20:54:38.238068,-0.04931640625,-0.015625,1.005859375,-0.692138671875,2.7410888671875,-91.9830322265625
2021-09-22 20:54:38.248183,-0.0517578125,-0.01513671875,1.00634765625,-0.6866455078125,2.757568359375,-92.0159912109375
2021-09-22 20:54:38.258112,-0.052734375,-0.01513671875,1.01025390625,-0.68115234375,2.7740478515625,-92.0489501953125
2021-09-22 20:54:38.268041,-0.0537109375,-0.017578125,1.009765625,-0.68115234375,2.79052734375,-92.0819091796875
2021-09-22 20:54:38.278068,-0.0556640625,-0.0205078125,1.01318359375,-0.6756591796875,2.8070068359375,-92.1148681640625
2021-09-22 20:54:38.288094,-0.06005859375,-0.021484375,1.00830078125,-0.6756591796875,2.83447265625,-92.1478271484375
2021-09-22 20:54:38.297973,-0.06005859375,-0.01806640625,1.0087890625,-0.670166015625,2.8564453125,-92.1807861328125
2021-09-22 20:54:38.307872,-0.05810546875,-0.01171875,1.0078125,-0.6646728515625,2.8839111328125,-92.2137451171875
2021-09-22 20:54:38.317978,-0.0556640625,-0.01123046875,1.0087890625,-0.6591796875,2.9058837890625,-92.2467041015625
2021-09-22 20:54:38.327901,-0.05615234375,-0.0087890625,1.013671875,-0.648193359375,2.9278564453125,-92.2796630859375
2021-09-22 20:54:38.337870,-0.056640625,-0.00634765625,1.01611328125,-0.6317138671875,2.955322265625,-92.3126220703125
2021-09-22 20:54:38.347854,-0.05712890625,-0.00927734375,1.0166015625,-0.6207275390625,2.9827880859375,-92.3455810546875
2021-09-22 20:54:38.357909,-0.060546875,-0.009765625,1.0166015625,-0.6097412109375,3.01025390625,-92.373046875
2021-09-22 20:54:38.367854,-0.060546875,-0.0078125,1.01318359375,-0.5877685546875,3.0377197265625,-92.4005126953125
2021-09-22 20:54:38.377793,-0.06298828125,-0.0029296875,1.01171875,-0.5657958984375,3.065185546875,-92.427978515625
2021-09-22 20:54:38.387800,-0.06103515625,-0.00048828125,1.0087890625,-0.5328369140625,3.0926513671875,-92.4554443359375
2021-09-22 20:54:38.397679,-0.06005859375,0.00341796875,1.005859375,-0.4998779296875,3.1201171875,-92.4774169921875
2021-09-22 20:54:38.407600,-0.056640625,0.0048828125,1.00390625,-0.4559326171875,3.1475830078125,-92.4993896484375
2021-09-22 20:54:38.417510,-0.0556640625,0.0068359375,0.99853515625,-0.406494140625,3.1695556640625,-92.5213623046875
2021-09-22 20:54:38.427640,-0.0576171875,0.01025390625,0.99853515625,-0.3515625,3.1915283203125,-92.537841796875
2021-09-22 20:54:38.437632,-0.06201171875,0.01171875,1.0029296875,-0.2911376953125,3.2135009765625,-92.5543212890625
2021-09-22 20:54:38.447500,-0.06591796875,0.01171875,1.005859375,-0.2362060546875,3.240966796875,-92.57080078125
2021-09-22 20:54:38.457460,-0.068359375,0.0087890625,1.0107421875,-0.186767578125,3.27392578125,-92.5872802734375
2021-09-22 20:54:38.467488,-0.06982421875,0.00390625,1.01318359375,-0.1483154296875,3.306884765625,-92.5982666015625
2021-09-22 20:54:38.477381,-0.068359375,0.00244140625,1.01171875,-0.120849609375,3.33984375,-92.6092529296875
2021-09-22 20:54:38.487460,-0.0673828125,0.00341796875,1.00830078125,-0.098876953125,3.372802734375,-92.61474609375
2021-09-22 20:54:38.497445,-0.06787109375,0.00439453125,1.00341796875,-0.076904296875,3.4112548828125,-92.6202392578125
2021-09-22 20:54:38.507363,-0.0654296875,0.0048828125,1.00146484375,-0.0604248046875,3.44970703125,-92.6202392578125
2021-09-22 20:54:38.517281,-0.06494140625,0.00634765625,0.99951171875,-0.0494384765625,3.49365234375,-92.61474609375
2021-09-22 20:54:38.527203,-0.0634765625,0.0078125,1.00146484375,-0.0384521484375,3.53759765625,-92.603759765625
2021-09-22 20:54:38.537122,-0.0634765625,0.00830078125,1.0,-0.02197265625,3.5760498046875,-92.5872802734375
2021-09-22 20:54:38.547116,-0.064453125,0.00439453125,0.99755859375,-0.010986328125,3.6199951171875,-92.57080078125
2021-09-22 20:54:38.557167,-0.0654296875,0.00146484375,0.99365234375,0.0,3.6639404296875,-92.548828125
2021-09-22 20:54:38.567102,-0.0673828125,0.0009765625,0.98681640625,0.010986328125,3.702392578125,-92.52685546875
2021-09-22 20:54:38.576843,-0.068359375,0.00439453125,0.986328125,0.0384521484375,3.7408447265625,-92.4993896484375
2021-09-22 20:54:38.586935,-0.06884765625,0.00146484375,0.986328125,0.0714111328125,3.779296875,-92.4774169921875
2021-09-22 20:54:38.597110,-0.07080078125,0.00048828125,0.990234375,0.1043701171875,3.8177490234375,-92.4554443359375
2021-09-22 20:54:38.607171,-0.06787109375,-0.0029296875,0.9931640625,0.1373291015625,3.856201171875,-92.4334716796875
2021-09-22 20:54:38.616858,-0.06640625,-0.009765625,0.99560546875,0.1593017578125,3.8946533203125,-92.4114990234375
2021-09-22 20:54:38.626942,-0.0625,-0.00634765625,0.998046875,0.1812744140625,3.93310546875,-92.39501953125
2021-09-22 20:54:38.636802,-0.05908203125,-0.00341796875,0.9970703125,0.19775390625,3.966064453125,-92.373046875
2021-09-22 20:54:38.646753,-0.05810546875,-0.00244140625,0.99267578125,0.208740234375,4.0045166015625,-92.35107421875
2021-09-22 20:54:38.656834,-0.05908203125,-0.001953125,0.99169921875,0.2252197265625,4.04296875,-92.3291015625
2021-09-22 20:54:38.666859,-0.0595703125,-0.00146484375,0.99560546875,0.2362060546875,4.075927734375,-92.30712890625
2021-09-22 20:54:38.676744,-0.05810546875,-0.00244140625,0.9970703125,0.24169921875,4.1143798828125,-92.28515625
2021-09-22 20:54:38.686613,-0.0576171875,-0.00244140625,0.99755859375,0.24169921875,4.1473388671875,-92.2686767578125
2021-09-22 20:54:38.696724,-0.05712890625,-0.00341796875,0.9951171875,0.2362060546875,4.185791015625,-92.2467041015625
2021-09-22 20:54:38.706671,-0.05322265625,-0.0009765625,0.99462890625,0.2362060546875,4.2132568359375,-92.230224609375
2021-09-22 20:54:38.717214,-0.05322265625,0.0009765625,0.9951171875,0.230712890625,4.2352294921875,-92.2137451171875
2021-09-22 20:54:38.726551,-0.056640625,0.00244140625,0.99560546875,0.230712890625,4.2572021484375,-92.197265625
2021-09-22 20:54:38.736680,-0.0615234375,0.001953125,1.00390625,0.2252197265625,4.2791748046875,-92.186279296875
2021-09-22 20:54:38.746555,-0.0625,0.0,1.00439453125,0.2197265625,4.295654296875,-92.17529296875
2021-09-22 20:54:38.756068,-0.06396484375,-0.00146484375,1.00830078125,0.2142333984375,4.306640625,-92.1697998046875
2021-09-22 20:54:38.766499,-0.0634765625,-0.0009765625,1.01025390625,0.208740234375,4.3121337890625,-92.1697998046875
2021-09-22 20:54:38.776456,-0.06201171875,0.00146484375,1.00341796875,0.2032470703125,4.3121337890625,-92.1697998046875
2021-09-22 20:54:38.786407,-0.0576171875,0.00537109375,1.00390625,0.208740234375,4.3011474609375,-92.17529296875
2021-09-22 20:54:38.796281,-0.05859375,0.00732421875,1.00439453125,0.2142333984375,4.2901611328125,-92.1807861328125
2021-09-22 20:54:38.806398,-0.05810546875,0.00927734375,1.0126953125,0.2252197265625,4.2681884765625,-92.1917724609375
2021-09-22 20:54:38.816336,-0.06103515625,0.01025390625,1.02099609375,0.230712890625,4.2462158203125,-92.197265625
2021-09-22 20:54:38.826185,-0.06005859375,0.0068359375,1.02685546875,0.230712890625,4.2132568359375,-92.208251953125
2021-09-22 20:54:38.836146,-0.0576171875,0.01123046875,1.03076171875,0.230712890625,4.1802978515625,-92.21923828125
2021-09-22 20:54:38.846207,-0.0576171875,0.0166015625,1.0263671875,0.2252197265625,4.141845703125,-92.230224609375
2021-09-22 20:54:38.856111,-0.05810546875,0.01904296875,1.01806640625,0.2197265625,4.1033935546875,-92.2412109375
2021-09-22 20:54:38.866158,-0.0615234375,0.0205078125,1.015625,0.2142333984375,4.06494140625,-92.252197265625
2021-09-22 20:54:38.876048,-0.06005859375,0.029296875,1.01416015625,0.2197265625,4.0155029296875,-92.2686767578125
2021-09-22 20:54:38.886149,-0.06005859375,0.029296875,1.01416015625,0.230712890625,3.966064453125,-92.2796630859375
2021-09-22 20:54:38.896085,-0.05908203125,0.03369140625,1.0087890625,0.2471923828125,3.9111328125,-92.3016357421875
2021-09-22 20:54:38.906077,-0.05712890625,0.03466796875,1.01318359375,0.263671875,3.856201171875,-92.318115234375
2021-09-22 20:54:38.915892,-0.0595703125,0.03466796875,1.01416015625,0.2801513671875,3.7957763671875,-92.340087890625
2021-09-22 20:54:38.925963,-0.060546875,0.0322265625,1.0234375,0.296630859375,3.7298583984375,-92.3675537109375
2021-09-22 20:54:38.935939,-0.06298828125,0.0302734375,1.021484375,0.3021240234375,3.66943359375,-92.39501953125
2021-09-22 20:54:38.945864,-0.0654296875,0.033203125,1.02197265625,0.3131103515625,3.6090087890625,-92.4224853515625
2021-09-22 20:54:38.955720,-0.0693359375,0.03271484375,1.02001953125,0.318603515625,3.548583984375,-92.449951171875
2021-09-22 20:54:38.965868,-0.06884765625,0.0322265625,1.01904296875,0.318603515625,3.4881591796875,-92.4774169921875
2021-09-22 20:54:38.975724,-0.0703125,0.02978515625,1.02099609375,0.3240966796875,3.4332275390625,-92.5048828125
2021-09-22 20:54:38.985600,-0.072265625,0.02197265625,1.02685546875,0.32958984375,3.3837890625,-92.537841796875
2021-09-22 20:54:38.995528,-0.07275390625,0.01318359375,1.0302734375,0.3240966796875,3.328857421875,-92.559814453125
2021-09-22 20:54:39.005687,-0.07177734375,0.0068359375,1.03173828125,0.318603515625,3.2794189453125,-92.581787109375
2021-09-22 20:54:39.015635,-0.07275390625,0.00146484375,1.02978515625,0.3076171875,3.2354736328125,-92.5982666015625
2021-09-22 20:54:39.025521,-0.0712890625,-0.001953125,1.02685546875,0.3021240234375,3.18603515625,-92.61474609375
2021-09-22 20:54:39.035553,-0.06982421875,0.0,1.02490234375,0.3021240234375,3.14208984375,-92.6202392578125
2021-09-22 20:54:39.045153,-0.06982421875,0.0068359375,1.02294921875,0.3076171875,3.09814453125,-92.6202392578125
2021-09-22 20:54:39.055400,-0.068359375,0.00927734375,1.02392578125,0.32958984375,3.0596923828125,-92.6202392578125
2021-09-22 20:54:39.065547,-0.06396484375,0.009765625,1.021484375,0.3570556640625,3.0157470703125,-92.6092529296875
2021-09-22 20:54:39.075485,-0.060546875,0.0078125,1.02001953125,0.3900146484375,2.9718017578125,-92.5927734375
2021-09-22 20:54:39.085338,-0.05908203125,0.0078125,1.017578125,0.4339599609375,2.9278564453125,-92.57080078125
2021-09-22 20:54:39.095290,-0.06005859375,0.005859375,1.015625,0.4888916015625,2.889404296875,-92.537841796875
2021-09-22 20:54:39.105378,-0.0625,0.00146484375,1.01513671875,0.54931640625,2.845458984375,-92.5048828125
2021-09-22 20:54:39.115290,-0.0576171875,0.00244140625,1.013671875,0.6207275390625,2.8070068359375,-92.4609375
2021-09-22 20:54:39.125241,-0.05615234375,0.00439453125,1.015625,0.6976318359375,2.7630615234375,-92.4169921875
2021-09-22 20:54:39.135182,-0.05322265625,0.00927734375,1.01318359375,0.76904296875,2.7191162109375,-92.3675537109375
2021-09-22 20:54:39.145095,-0.05029296875,0.0126953125,1.0068359375,0.8404541015625,2.6806640625,-92.318115234375
2021-09-22 20:54:39.155164,-0.0478515625,0.015625,1.001953125,0.911865234375,2.6422119140625,-92.26318359375
2021-09-22 20:54:39.165091,-0.04833984375,0.0185546875,0.99365234375,0.977783203125,2.603759765625,-92.208251953125
2021-09-22 20:54:39.174987,-0.04736328125,0.0166015625,0.98876953125,1.0382080078125,2.5653076171875,-92.1533203125
2021-09-22 20:54:39.184866,-0.04248046875,0.0146484375,0.982421875,1.0986328125,2.52685546875,-92.0928955078125
2021-09-22 20:54:39.195064,-0.04345703125,0.01220703125,0.984375,1.1480712890625,2.4884033203125,-92.0379638671875
2021-09-22 20:54:39.204911,-0.046875,0.01171875,0.98388671875,1.2030029296875,2.4554443359375,-91.9830322265625
2021-09-22 20:54:39.215506,-0.04833984375,0.00732421875,0.98291015625,1.2469482421875,2.4224853515625,-91.922607421875
2021-09-22 20:54:39.224749,-0.0478515625,0.00537109375,0.98388671875,1.285400390625,2.3895263671875,-91.86767578125
2021-09-22 20:54:39.234857,-0.044921875,0.00439453125,0.97998046875,1.3238525390625,2.3565673828125,-91.812744140625
2021-09-22 20:54:39.244805,-0.04345703125,0.0009765625,0.97412109375,1.3623046875,2.3236083984375,-91.7578125
2021-09-22 20:54:39.254789,-0.04150390625,-0.00146484375,0.974609375,1.395263671875,2.28515625,-91.702880859375
2021-09-22 20:54:39.264826,-0.0390625,-0.0009765625,0.974609375,1.4337158203125,2.252197265625,-91.6534423828125
2021-09-22 20:54:39.274695,-0.0380859375,-0.00244140625,0.97607421875,1.4666748046875,2.2137451171875,-91.5985107421875
2021-09-22 20:54:39.284576,-0.0400390625,-0.00341796875,0.98095703125,1.494140625,2.1807861328125,-91.5545654296875
2021-09-22 20:54:39.294514,-0.04345703125,-0.00830078125,0.98681640625,1.5106201171875,2.1478271484375,-91.505126953125
2021-09-22 20:54:39.304578,-0.0419921875,-0.01416015625,0.98681640625,1.5106201171875,2.1148681640625,-91.4666748046875
2021-09-22 20:54:39.314545,-0.04052734375,-0.0166015625,0.98974609375,1.505126953125,2.08740234375,-91.4227294921875
2021-09-22 20:54:39.324507,-0.04052734375,-0.02099609375,0.98779296875,1.4886474609375,2.054443359375,-91.3897705078125
2021-09-22 20:54:39.334441,-0.037109375,-0.02099609375,0.98583984375,1.461181640625,2.0269775390625,-91.3568115234375
2021-09-22 20:54:39.344451,-0.03515625,-0.01708984375,0.98828125,1.439208984375,1.9940185546875,-91.3238525390625
2021-09-22 20:54:39.354393,-0.03125,-0.013671875,0.98681640625,1.417236328125,1.95556640625,-91.2908935546875
2021-09-22 20:54:39.364341,-0.02490234375,-0.0126953125,0.98681640625,1.3897705078125,1.9171142578125,-91.2579345703125
2021-09-22 20:54:39.374434,-0.0205078125,-0.0087890625,0.98486328125,1.373291015625,1.8731689453125,-91.2249755859375
2021-09-22 20:54:39.384259,-0.021484375,-0.01123046875,0.984375,1.3568115234375,1.834716796875,-91.1920166015625
2021-09-22 20:54:39.394300,-0.0234375,-0.01171875,0.984375,1.3458251953125,1.7962646484375,-91.1590576171875
2021-09-22 20:54:39.404324,-0.029296875,-0.01171875,0.9853515625,1.3348388671875,1.7578125,-91.1260986328125
2021-09-22 20:54:39.414228,-0.0263671875,-0.009765625,0.98876953125,1.329345703125,1.724853515625,-91.0986328125
2021-09-22 20:54:39.424145,-0.02587890625,-0.00830078125,0.98974609375,1.3238525390625,1.69189453125,-91.0711669921875
2021-09-22 20:54:39.434042,-0.0234375,-0.00927734375,0.9892578125,1.307373046875,1.6534423828125,-91.0491943359375
2021-09-22 20:54:39.444108,-0.0263671875,-0.0068359375,0.99267578125,1.2908935546875,1.6259765625,-91.0272216796875
2021-09-22 20:54:39.454194,-0.03173828125,-0.0029296875,0.9892578125,1.2689208984375,1.5985107421875,-91.0107421875
2021-09-22 20:54:39.464014,-0.0302734375,-0.0009765625,0.9873046875,1.241455078125,1.5765380859375,-91.0052490234375
2021-09-22 20:54:39.474095,-0.029296875,0.0029296875,0.9873046875,1.2139892578125,1.5545654296875,-91.0052490234375
2021-09-22 20:54:39.484067,-0.02783203125,0.009765625,0.9912109375,1.1810302734375,1.5325927734375,-91.0107421875
2021-09-22 20:54:39.494018,-0.0283203125,0.01220703125,0.98876953125,1.142578125,1.5216064453125,-91.021728515625
2021-09-22 20:54:39.503787,-0.0283203125,0.0126953125,0.99072265625,1.0986328125,1.51611328125,-91.0382080078125
2021-09-22 20:54:39.513934,-0.02880859375,0.01318359375,0.994140625,1.043701171875,1.5106201171875,-91.0601806640625
2021-09-22 20:54:39.523978,-0.0302734375,0.01513671875,0.9912109375,0.98876953125,1.51611328125,-91.0931396484375
2021-09-22 20:54:39.533861,-0.0283203125,0.01708984375,0.9873046875,0.9393310546875,1.527099609375,-91.1260986328125
2021-09-22 20:54:39.543670,-0.0283203125,0.02099609375,0.98681640625,0.889892578125,1.5380859375,-91.16455078125
2021-09-22 20:54:39.553792,-0.02734375,0.02197265625,0.9931640625,0.845947265625,1.5545654296875,-91.2030029296875
2021-09-22 20:54:39.563701,-0.02978515625,0.02099609375,0.99609375,0.802001953125,1.571044921875,-91.2469482421875
2021-09-22 20:54:39.573625,-0.02734375,0.01904296875,0.998046875,0.7635498046875,1.593017578125,-91.2908935546875
2021-09-22 20:54:39.583679,-0.0283203125,0.01513671875,1.0029296875,0.714111328125,1.6204833984375,-91.3348388671875
2021-09-22 20:54:39.593798,-0.0283203125,0.00927734375,1.005859375,0.6646728515625,1.64794921875,-91.3787841796875
2021-09-22 20:54:39.603591,-0.02783203125,0.009765625,1.0126953125,0.615234375,1.6864013671875,-91.4117431640625
2021-09-22 20:54:39.613425,-0.03125,0.01123046875,1.01220703125,0.5657958984375,1.724853515625,-91.4447021484375
2021-09-22 20:54:39.623575,-0.03466796875,0.00830078125,1.02197265625,0.5108642578125,1.768798828125,-91.4776611328125
2021-09-22 20:54:39.633455,-0.03564453125,0.00732421875,1.0205078125,0.4559326171875,1.8182373046875,-91.4996337890625
2021-09-22 20:54:39.643325,-0.03759765625,0.005859375,1.02099609375,0.406494140625,1.8731689453125,-91.51611328125
2021-09-22 20:54:39.653548,-0.03759765625,0.00927734375,1.0205078125,0.3570556640625,1.922607421875,-91.5325927734375
2021-09-22 20:54:39.663433,-0.03759765625,0.01171875,1.0166015625,0.318603515625,1.9720458984375,-91.5380859375
2021-09-22 20:54:39.673296,-0.0380859375,0.01123046875,1.01904296875,0.28564453125,2.021484375,-91.5380859375
2021-09-22 20:54:39.683378,-0.0400390625,0.009765625,1.01513671875,0.2691650390625,2.0709228515625,-91.5325927734375
2021-09-22 20:54:39.693307,-0.0419921875,0.0078125,1.02294921875,0.2581787109375,2.1148681640625,-91.527099609375
2021-09-22 20:54:39.703262,-0.04248046875,0.00537109375,1.02294921875,0.252685546875,2.1533203125,-91.51611328125
2021-09-22 20:54:39.713898,-0.04052734375,0.00390625,1.0263671875,0.2581787109375,2.186279296875,-91.494140625
2021-09-22 20:54:39.723129,-0.03857421875,0.005859375,1.029296875,0.263671875,2.2137451171875,-91.47216796875
2021-09-22 20:54:39.733195,-0.0380859375,0.0078125,1.025390625,0.274658203125,2.2357177734375,-91.4447021484375
2021-09-22 20:54:39.743098,-0.0390625,0.00732421875,1.02685546875,0.2801513671875,2.2576904296875,-91.417236328125
2021-09-22 20:54:39.753003,-0.037109375,0.01025390625,1.025390625,0.28564453125,2.2686767578125,-91.38427734375
2021-09-22 20:54:39.763048,-0.03564453125,0.0107421875,1.01904296875,0.2911376953125,2.274169921875,-91.351318359375
2021-09-22 20:54:39.773008,-0.03369140625,0.01708984375,1.0166015625,0.296630859375,2.2686767578125,-91.318359375
2021-09-22 20:54:39.783052,-0.0341796875,0.01953125,1.0126953125,0.3076171875,2.26318359375,-91.2908935546875
2021-09-22 20:54:39.792975,-0.03515625,0.0234375,1.0146484375,0.318603515625,2.2467041015625,-91.2579345703125
2021-09-22 20:54:39.803021,-0.03662109375,0.0234375,1.01806640625,0.3350830078125,2.230224609375,-91.2359619140625
2021-09-22 20:54:39.812851,-0.03369140625,0.017578125,1.015625,0.340576171875,2.208251953125,-91.2139892578125
2021-09-22 20:54:39.822817,-0.03857421875,0.01708984375,1.01611328125,0.3515625,2.1807861328125,-91.197509765625
2021-09-22 20:54:39.832946,-0.037109375,0.01708984375,1.0185546875,0.3570556640625,2.1533203125,-91.1810302734375
2021-09-22 20:54:39.842795,-0.0341796875,0.0185546875,1.0185546875,0.362548828125,2.120361328125,-91.175537109375
2021-09-22 20:54:39.852670,-0.02783203125,0.0185546875,1.01708984375,0.37353515625,2.0819091796875,-91.16455078125
2021-09-22 20:54:39.862828,-0.02392578125,0.01513671875,1.0185546875,0.37353515625,2.032470703125,-91.1590576171875
2021-09-22 20:54:39.872715,-0.02294921875,0.0146484375,1.02099609375,0.3790283203125,1.988525390625,-91.153564453125
2021-09-22 20:54:39.882624,-0.0224609375,0.01611328125,1.0234375,0.384521484375,1.944580078125,-91.1480712890625
2021-09-22 20:54:39.892505,-0.02490234375,0.01318359375,1.0234375,0.3900146484375,1.8951416015625,-91.142578125
2021-09-22 20:54:39.902588,-0.025390625,0.01513671875,1.0185546875,0.4010009765625,1.8511962890625,-91.1370849609375
2021-09-22 20:54:39.912445,-0.02783203125,0.017578125,1.01513671875,0.4229736328125,1.8072509765625,-91.131591796875
2021-09-22 20:54:39.922691,-0.0283203125,0.0185546875,1.01123046875,0.4559326171875,1.768798828125,-91.1260986328125
2021-09-22 20:54:39.932363,-0.03076171875,0.01611328125,1.01171875,0.4998779296875,1.7303466796875,-91.12060546875
2021-09-22 20:54:39.942456,-0.02880859375,0.01611328125,1.0107421875,0.5438232421875,1.69189453125,-91.1151123046875
2021-09-22 20:54:39.952372,-0.0263671875,0.017578125,1.01220703125,0.59326171875,1.658935546875,-91.1041259765625
2021-09-22 20:54:39.962308,-0.02490234375,0.0185546875,1.0107421875,0.648193359375,1.6259765625,-91.0931396484375
2021-09-22 20:54:39.972370,-0.0234375,0.021484375,1.0048828125,0.703125,1.593017578125,-91.0821533203125
2021-09-22 20:54:39.982460,-0.0205078125,0.02099609375,0.99951171875,0.758056640625,1.571044921875,-91.0601806640625
2021-09-22 20:54:39.992273,-0.0244140625,0.02001953125,0.994140625,0.81298828125,1.5545654296875,-91.0382080078125
2021-09-22 20:54:40.002068,-0.02294921875,0.01904296875,0.9931640625,0.867919921875,1.5435791015625,-91.0162353515625
2021-09-22 20:54:40.012012,-0.02392578125,0.01806640625,0.9921875,0.9173583984375,1.5325927734375,-90.9942626953125
2021-09-22 20:54:40.022095,-0.02685546875,0.0146484375,0.99365234375,0.9613037109375,1.5325927734375,-90.966796875
2021-09-22 20:54:40.032034,-0.02783203125,0.01220703125,0.998046875,0.999755859375,1.5435791015625,-90.94482421875
2021-09-22 20:54:40.041947,-0.02783203125,0.01123046875,0.9990234375,1.0272216796875,1.5545654296875,-90.9173583984375
2021-09-22 20:54:40.051908,-0.02734375,0.01171875,1.00048828125,1.0491943359375,1.571044921875,-90.8953857421875
2021-09-22 20:54:40.062026,-0.0263671875,0.0126953125,1.001953125,1.065673828125,1.593017578125,-90.867919921875
2021-09-22 20:54:40.071905,-0.02392578125,0.01611328125,1.00048828125,1.0821533203125,1.614990234375,-90.8404541015625
2021-09-22 20:54:40.081820,-0.0263671875,0.017578125,0.9970703125,1.0986328125,1.636962890625,-90.81298828125
2021-09-22 20:54:40.091908,-0.02587890625,0.01611328125,0.9912109375,1.1260986328125,1.6644287109375,-90.791015625
2021-09-22 20:54:40.101811,-0.0283203125,0.01611328125,0.99658203125,1.1590576171875,1.69189453125,-90.7635498046875
2021-09-22 20:54:40.111801,-0.02880859375,0.01953125,0.998046875,1.2030029296875,1.7193603515625,-90.7415771484375
2021-09-22 20:54:40.121801,-0.0283203125,0.01806640625,1.0048828125,1.2469482421875,1.746826171875,-90.72509765625
2021-09-22 20:54:40.131807,-0.0283203125,0.0185546875,1.00537109375,1.285400390625,1.7742919921875,-90.703125
2021-09-22 20:54:40.141682,-0.0244140625,0.021484375,1.00732421875,1.3238525390625,1.7962646484375,-90.6866455078125
2021-09-22 20:54:40.151591,-0.02685546875,0.021484375,1.0048828125,1.3568115234375,1.82373046875,-90.6646728515625
2021-09-22 20:54:40.161551,-0.02978515625,0.0205078125,1.0009765625,1.38427734375,1.845703125,-90.648193359375
2021-09-22 20:54:40.171639,-0.03125,0.0185546875,0.99853515625,1.4117431640625,1.8731689453125,-90.63720703125
2021-09-22 20:54:40.181641,-0.0322265625,0.02001953125,0.99658203125,1.439208984375,1.8951416015625,-90.626220703125
2021-09-22 20:54:40.191581,-0.03173828125,0.02197265625,0.9970703125,1.4666748046875,1.9171142578125,-90.615234375
2021-09-22 20:54:40.201437,-0.03173828125,0.02392578125,1.0009765625,1.494140625,1.93359375,-90.6097412109375
2021-09-22 20:54:40.212013,-0.0302734375,0.0244140625,1.0009765625,1.5106201171875,1.9500732421875,-90.604248046875
2021-09-22 20:54:40.221423,-0.02783203125,0.0244140625,1.00390625,1.5216064453125,1.966552734375,-90.604248046875
2021-09-22 20:54:40.231313,-0.02685546875,0.02734375,1.0029296875,1.5325927734375,1.9775390625,-90.604248046875
2021-09-22 20:54:40.241221,-0.0302734375,0.03076171875,0.99951171875,1.5325927734375,1.9940185546875,-90.604248046875
2021-09-22 20:54:40.251512,-0.0322265625,0.0302734375,0.9990234375,1.5380859375,2.0050048828125,-90.604248046875
2021-09-22 20:54:40.261283,-0.033203125,0.03076171875,0.99560546875,1.5380859375,2.021484375,-90.604248046875
2021-09-22 20:54:40.271166,-0.03369140625,0.029296875,0.994140625,1.5435791015625,2.0269775390625,-90.6097412109375
2021-09-22 20:54:40.281056,-0.03173828125,0.02978515625,0.99609375,1.549072265625,2.0379638671875,-90.6207275390625
2021-09-22 20:54:40.291222,-0.03076171875,0.0302734375,0.9970703125,1.56005859375,2.0379638671875,-90.626220703125
2021-09-22 20:54:40.301105,-0.03173828125,0.03173828125,0.99853515625,1.571044921875,2.0379638671875,-90.63720703125
2021-09-22 20:54:40.310998,-0.03125,0.033203125,1.0,1.5765380859375,2.0379638671875,-90.648193359375
2021-09-22 20:54:40.321192,-0.033203125,0.0341796875,1.005859375,1.58203125,2.0379638671875,-90.6591796875
2021-09-22 20:54:40.331105,-0.033203125,0.0341796875,1.00537109375,1.5765380859375,2.032470703125,-90.6646728515625
2021-09-22 20:54:40.341016,-0.0341796875,0.033203125,1.00439453125,1.571044921875,2.0269775390625,-90.6756591796875
2021-09-22 20:54:40.350894,-0.03125,0.03515625,1.005859375,1.56005859375,2.021484375,-90.6866455078125
2021-09-22 20:54:40.360972,-0.03125,0.03369140625,1.00341796875,1.549072265625,2.010498046875,-90.6976318359375
2021-09-22 20:54:40.370847,-0.02978515625,0.0302734375,1.00341796875,1.527099609375,2.0050048828125,-90.7086181640625
2021-09-22 20:54:40.380845,-0.03271484375,0.02783203125,1.005859375,1.505126953125,1.9940185546875,-90.714111328125
2021-09-22 20:54:40.390849,-0.03173828125,0.02783203125,1.00830078125,1.483154296875,1.988525390625,-90.7196044921875
2021-09-22 20:54:40.400838,-0.03271484375,0.02880859375,1.00634765625,1.4666748046875,1.9775390625,-90.72509765625
2021-09-22 20:54:40.410795,-0.033203125,0.02880859375,1.00927734375,1.4447021484375,1.9720458984375,-90.7305908203125
2021-09-22 20:54:40.420719,-0.03271484375,0.02783203125,1.00830078125,1.42822265625,1.9610595703125,-90.7305908203125
2021-09-22 20:54:40.430589,-0.03125,0.02880859375,1.0087890625,1.417236328125,1.944580078125,-90.7305908203125
2021-09-22 20:54:40.440666,-0.0302734375,0.0283203125,1.00830078125,1.40625,1.9281005859375,-90.72509765625
2021-09-22 20:54:40.450700,-0.03125,0.03076171875,1.00927734375,1.395263671875,1.9171142578125,-90.72509765625
2021-09-22 20:54:40.460585,-0.03515625,0.03076171875,1.00537109375,1.38427734375,1.900634765625,-90.7196044921875
2021-09-22 20:54:40.470445,-0.03759765625,0.02978515625,1.0068359375,1.3677978515625,1.8896484375,-90.714111328125
2021-09-22 20:54:40.480562,-0.03466796875,0.02734375,1.00439453125,1.3568115234375,1.8731689453125,-90.703125
2021-09-22 20:54:40.490454,-0.03369140625,0.0283203125,1.0078125,1.34033203125,1.8511962890625,-90.6976318359375
2021-09-22 20:54:40.500323,-0.03173828125,0.02685546875,1.00830078125,1.3238525390625,1.834716796875,-90.692138671875
2021-09-22 20:54:40.510228,-0.0322265625,0.02685546875,1.0107421875,1.307373046875,1.812744140625,-90.68115234375
2021-09-22 20:54:40.520473,-0.02978515625,0.029296875,1.01171875,1.2908935546875,1.790771484375,-90.6756591796875
2021-09-22 20:54:40.530357,-0.02734375,0.02880859375,1.00732421875,1.2744140625,1.768798828125,-90.6646728515625
2021-09-22 20:54:40.540234,-0.029296875,0.02783203125,1.00244140625,1.2579345703125,1.746826171875,-90.6591796875
2021-09-22 20:54:40.550312,-0.0302734375,0.029296875,1.00244140625,1.241455078125,1.724853515625,-90.648193359375
2021-09-22 20:54:40.560230,-0.0322265625,0.02880859375,1.00732421875,1.2249755859375,1.7083740234375,-90.6427001953125
2021-09-22 20:54:40.570156,-0.0322265625,0.025390625,1.0078125,1.20849609375,1.69189453125,-90.6427001953125
2021-09-22 20:54:40.580047,-0.03125,0.02587890625,1.0078125,1.197509765625,1.6754150390625,-90.63720703125
2021-09-22 20:54:40.590304,-0.03271484375,0.02392578125,1.00634765625,1.1810302734375,1.658935546875,-90.63720703125
2021-09-22 20:54:40.600108,-0.0341796875,0.02197265625,1.00439453125,1.175537109375,1.64794921875,-90.6427001953125
2021-09-22 20:54:40.610007,-0.0341796875,0.0234375,1.00146484375,1.1700439453125,1.636962890625,-90.648193359375
2021-09-22 20:54:40.620086,-0.0341796875,0.0224609375,0.99951171875,1.1700439453125,1.6314697265625,-90.6591796875
2021-09-22 20:54:40.630035,-0.0322265625,0.0234375,0.9970703125,1.1700439453125,1.6259765625,-90.670166015625
2021-09-22 20:54:40.639979,-0.029296875,0.0244140625,0.99951171875,1.16455078125,1.6204833984375,-90.6866455078125
2021-09-22 20:54:40.650080,-0.02880859375,0.0224609375,1.00048828125,1.16455078125,1.614990234375,-90.703125
2021-09-22 20:54:40.660082,-0.0302734375,0.02099609375,1.0029296875,1.1590576171875,1.6204833984375,-90.7196044921875
2021-09-22 20:54:40.669931,-0.03125,0.01806640625,1.00341796875,1.142578125,1.6204833984375,-90.736083984375
2021-09-22 20:54:40.679810,-0.0302734375,0.01806640625,1.00244140625,1.131591796875,1.6259765625,-90.758056640625
2021-09-22 20:54:40.689742,-0.02978515625,0.01708984375,1.00439453125,1.109619140625,1.636962890625,-90.780029296875
2021-09-22 20:54:40.699786,-0.0302734375,0.01611328125,1.00244140625,1.087646484375,1.6424560546875,-90.7965087890625
2021-09-22 20:54:40.710192,-0.03173828125,0.0146484375,0.99755859375,1.0711669921875,1.6534423828125,-90.8184814453125
2021-09-22 20:54:40.719779,-0.0322265625,0.01318359375,1.0,1.0491943359375,1.658935546875,-90.8404541015625
2021-09-22 20:54:40.729632,-0.03125,0.01318359375,1.00048828125,1.03271484375,1.669921875,-90.8624267578125
2021-09-22 20:54:40.739684,-0.02734375,0.015625,1.0009765625,1.021728515625,1.669921875,-90.87890625
2021-09-22 20:54:40.749614,-0.025390625,0.0146484375,1.00244140625,1.0107421875,1.6754150390625,-90.8953857421875
2021-09-22 20:54:40.759587,-0.02685546875,0.01513671875,1.00244140625,1.0052490234375,1.6754150390625,-90.911865234375
2021-09-22 20:54:40.769617,-0.02783203125,0.015625,1.00048828125,0.9942626953125,1.680908203125,-90.9228515625
2021-09-22 20:54:40.779496,-0.02880859375,0.01513671875,1.00341796875,0.9832763671875,1.680908203125,-90.933837890625
2021-09-22 20:54:40.789495,-0.02978515625,0.0146484375,1.00390625,0.966796875,1.680908203125,-90.9393310546875
2021-09-22 20:54:40.799418,-0.02978515625,0.01513671875,1.00537109375,0.9503173828125,1.680908203125,-90.9393310546875
2021-09-22 20:54:40.809310,-0.0302734375,0.013671875,1.00634765625,0.933837890625,1.680908203125,-90.9393310546875
2021-09-22 20:54:40.819215,-0.03076171875,0.0146484375,1.00634765625,0.9063720703125,1.680908203125,-90.9393310546875
2021-09-22 20:54:40.829286,-0.0283203125,0.01611328125,1.005859375,0.8843994140625,1.6754150390625,-90.9393310546875
2021-09-22 20:54:40.839206,-0.0302734375,0.01513671875,1.00244140625,0.85693359375,1.669921875,-90.933837890625
2021-09-22 20:54:40.849463,-0.033203125,0.01220703125,1.00048828125,0.8294677734375,1.6644287109375,-90.933837890625
2021-09-22 20:54:40.859244,-0.0341796875,0.0126953125,1.00146484375,0.802001953125,1.6534423828125,-90.933837890625
2021-09-22 20:54:40.869200,-0.03271484375,0.01513671875,1.0009765625,0.780029296875,1.6424560546875,-90.9283447265625
2021-09-22 20:54:40.879122,-0.03076171875,0.01513671875,1.00244140625,0.7525634765625,1.6314697265625,-90.9283447265625
2021-09-22 20:54:40.889217,-0.0322265625,0.0166015625,1.0048828125,0.72509765625,1.614990234375,-90.9283447265625
2021-09-22 20:54:40.899053,-0.03271484375,0.0146484375,1.01025390625,0.6976318359375,1.5985107421875,-90.9283447265625
2021-09-22 20:54:40.909145,-0.033203125,0.01318359375,1.01220703125,0.6591796875,1.58203125,-90.9283447265625
2021-09-22 20:54:40.919146,-0.03125,0.0078125,1.00732421875,0.615234375,1.56005859375,-90.933837890625
2021-09-22 20:54:40.929015,-0.03076171875,0.005859375,1.00927734375,0.5712890625,1.5435791015625,-90.933837890625
2021-09-22 20:54:40.938999,-0.03125,0.0029296875,1.00830078125,0.516357421875,1.5216064453125,-90.933837890625
2021-09-22 20:54:40.949057,-0.0302734375,0.0048828125,1.0087890625,0.472412109375,1.4996337890625,-90.933837890625
2021-09-22 20:54:40.958951,-0.02978515625,0.0029296875,1.00830078125,0.4229736328125,1.4776611328125,-90.9393310546875
2021-09-22 20:54:40.968967,-0.025390625,0.00537109375,1.00732421875,0.3790283203125,1.4501953125,-90.9393310546875
2021-09-22 20:54:40.978826,-0.02734375,0.00537109375,1.00830078125,0.340576171875,1.4227294921875,-90.9393310546875
2021-09-22 20:54:40.988744,-0.0283203125,0.00390625,1.00927734375,0.3076171875,1.4007568359375,-90.9393310546875
2021-09-22 20:54:40.998850,-0.03125,0.0029296875,1.01318359375,0.274658203125,1.373291015625,-90.9393310546875
2021-09-22 20:54:41.008788,-0.0341796875,0.00048828125,1.015625,0.24169921875,1.351318359375,-90.9393310546875
2021-09-22 20:54:41.018641,-0.0341796875,-0.00048828125,1.0166015625,0.2142333984375,1.329345703125,-90.9393310546875
2021-09-22 20:54:41.028699,-0.03369140625,0.0009765625,1.01416015625,0.186767578125,1.307373046875,-90.94482421875
2021-09-22 20:54:41.038824,-0.03466796875,-0.0009765625,1.01416015625,0.1593017578125,1.285400390625,-90.9503173828125
2021-09-22 20:54:41.048645,-0.03173828125,0.00146484375,1.00927734375,0.142822265625,1.2579345703125,-90.955810546875
2021-09-22 20:54:41.058650,-0.029296875,0.00390625,1.01123046875,0.1318359375,1.23046875,-90.966796875
2021-09-22 20:54:41.068571,-0.02587890625,0.005859375,1.01318359375,0.1318359375,1.197509765625,-90.977783203125
2021-09-22 20:54:41.078442,-0.02734375,0.00537109375,1.00634765625,0.1373291015625,1.16455078125,-90.9942626953125
2021-09-22 20:54:41.088419,-0.02685546875,0.0029296875,1.0068359375,0.15380859375,1.1260986328125,-91.0052490234375
2021-09-22 20:54:41.098645,-0.025390625,0.00439453125,1.00634765625,0.17578125,1.0931396484375,-91.021728515625
2021-09-22 20:54:41.108509,-0.02392578125,0.00341796875,1.00439453125,0.2032470703125,1.0546875,-91.0382080078125
2021-09-22 20:54:41.118355,-0.021484375,0.00537109375,1.00244140625,0.230712890625,1.0162353515625,-91.0546875
2021-09-22 20:54:41.128422,-0.01904296875,0.00732421875,1.0009765625,0.263671875,0.9832763671875,-91.0711669921875
2021-09-22 20:54:41.138332,-0.0146484375,0.01220703125,1.0,0.296630859375,0.9503173828125,-91.0931396484375
2021-09-22 20:54:41.148262,-0.01220703125,0.01513671875,0.998046875,0.32958984375,0.9173583984375,-91.109619140625
2021-09-22 20:54:41.158127,-0.01123046875,0.0166015625,0.9951171875,0.362548828125,0.8843994140625,-91.1260986328125
2021-09-22 20:54:41.168353,-0.009765625,0.01708984375,0.99609375,0.3900146484375,0.85693359375,-91.142578125
2021-09-22 20:54:41.178256,-0.00927734375,0.0166015625,0.99951171875,0.41748046875,0.8349609375,-91.153564453125
2021-09-22 20:54:41.188122,-0.00830078125,0.01806640625,0.9951171875,0.4339599609375,0.8184814453125,-91.16455078125
2021-09-22 20:54:41.198018,-0.00341796875,0.01806640625,1.0009765625,0.4449462890625,0.802001953125,-91.175537109375
2021-09-22 20:54:41.208617,-0.005859375,0.01806640625,1.00341796875,0.450439453125,0.7965087890625,-91.1810302734375
2021-09-22 20:54:41.218058,-0.00634765625,0.01904296875,1.0029296875,0.4449462890625,0.7965087890625,-91.1865234375
2021-09-22 20:54:41.228008,-0.00634765625,0.01904296875,1.00146484375,0.439453125,0.802001953125,-91.1865234375
2021-09-22 20:54:41.237985,-0.0048828125,0.017578125,0.9990234375,0.4229736328125,0.8074951171875,-91.1810302734375
2021-09-22 20:54:41.248026,-0.00341796875,0.0185546875,0.99951171875,0.4119873046875,0.823974609375,-91.1810302734375
2021-09-22 20:54:41.257930,-0.00341796875,0.01416015625,1.00390625,0.4010009765625,0.8404541015625,-91.175537109375
2021-09-22 20:54:41.268007,-0.00439453125,0.01318359375,1.00732421875,0.3900146484375,0.8624267578125,-91.16455078125
2021-09-22 20:54:41.277884,-0.0068359375,0.01123046875,1.01123046875,0.384521484375,0.8843994140625,-91.1590576171875
2021-09-22 20:54:41.287818,-0.00732421875,0.00830078125,1.013671875,0.3790283203125,0.9063720703125,-91.1480712890625
2021-09-22 20:54:41.297660,-0.00830078125,0.0078125,1.01513671875,0.384521484375,0.933837890625,-91.142578125
2021-09-22 20:54:41.307948,-0.01171875,0.009765625,1.017578125,0.3900146484375,0.966796875,-91.1370849609375
2021-09-22 20:54:41.317811,-0.0087890625,0.00634765625,1.0146484375,0.406494140625,0.9942626953125,-91.131591796875
2021-09-22 20:54:41.327632,-0.01123046875,0.00390625,1.01416015625,0.4229736328125,1.021728515625,-91.131591796875
2021-09-22 20:54:41.337587,-0.01318359375,0.005859375,1.01416015625,0.450439453125,1.0546875,-91.131591796875
2021-09-22 20:54:41.347724,-0.01171875,0.0078125,1.01318359375,0.4888916015625,1.0821533203125,-91.1370849609375
2021-09-22 20:54:41.357572,-0.009765625,0.0087890625,1.0107421875,0.52734375,1.1041259765625,-91.1480712890625
2021-09-22 20:54:41.367470,-0.009765625,0.0087890625,1.01025390625,0.5712890625,1.1260986328125,-91.153564453125
2021-09-22 20:54:41.377651,-0.0107421875,0.01025390625,1.0087890625,0.6207275390625,1.1480712890625,-91.1700439453125
2021-09-22 20:54:41.387546,-0.01220703125,0.0078125,1.00927734375,0.6646728515625,1.16455078125,-91.1810302734375
2021-09-22 20:54:41.397409,-0.0126953125,0.00732421875,1.0126953125,0.7086181640625,1.1810302734375,-91.197509765625
2021-09-22 20:54:41.407351,-0.01171875,0.00732421875,1.01220703125,0.7525634765625,1.197509765625,-91.219482421875
2021-09-22 20:54:41.417451,-0.0107421875,0.0068359375,1.01123046875,0.7855224609375,1.20849609375,-91.241455078125
2021-09-22 20:54:41.427299,-0.0107421875,0.00537109375,1.009765625,0.8184814453125,1.2139892578125,-91.263427734375
2021-09-22 20:54:41.437349,-0.01123046875,0.00927734375,1.0068359375,0.8514404296875,1.2249755859375,-91.285400390625
2021-09-22 20:54:41.447246,-0.01123046875,0.0107421875,1.01123046875,0.8734130859375,1.2249755859375,-91.3128662109375
2021-09-22 20:54:41.457344,-0.009765625,0.01220703125,1.01123046875,0.90087890625,1.23046875,-91.3348388671875
2021-09-22 20:54:41.467234,-0.01171875,0.0107421875,1.009765625,0.9173583984375,1.23046875,-91.3623046875
2021-09-22 20:54:41.477132,-0.013671875,0.0126953125,1.0078125,0.933837890625,1.2249755859375,-91.3897705078125
2021-09-22 20:54:41.487192,-0.01611328125,0.0126953125,1.00244140625,0.94482421875,1.2249755859375,-91.417236328125
2021-09-22 20:54:41.497081,-0.01708984375,0.01220703125,1.0009765625,0.9613037109375,1.219482421875,-91.4447021484375
2021-09-22 20:54:41.507155,-0.0166015625,0.0126953125,1.001953125,0.977783203125,1.20849609375,-91.47216796875
2021-09-22 20:54:41.517035,-0.01806640625,0.0107421875,1.0068359375,0.98876953125,1.197509765625,-91.4996337890625
2021-09-22 20:54:41.527042,-0.01708984375,0.00927734375,1.00390625,0.999755859375,1.1810302734375,-91.5325927734375
2021-09-22 20:54:41.536972,-0.02001953125,0.0087890625,1.005859375,1.0107421875,1.16455078125,-91.56005859375
2021-09-22 20:54:41.546847,-0.02099609375,0.0087890625,1.00341796875,1.021728515625,1.1480712890625,-91.593017578125
2021-09-22 20:54:41.556818,-0.02197265625,0.01025390625,1.00244140625,1.03271484375,1.1260986328125,-91.6204833984375
2021-09-22 20:54:41.567133,-0.02001953125,0.01025390625,1.0,1.043701171875,1.0986328125,-91.64794921875
2021-09-22 20:54:41.576898,-0.02099609375,0.0087890625,0.998046875,1.0601806640625,1.0711669921875,-91.6754150390625
2021-09-22 20:54:41.586744,-0.02197265625,0.01123046875,0.99658203125,1.0711669921875,1.043701171875,-91.702880859375
2021-09-22 20:54:41.596858,-0.0224609375,0.01318359375,0.9990234375,1.087646484375,1.0107421875,-91.7303466796875
2021-09-22 20:54:41.606757,-0.02392578125,0.01318359375,1.00048828125,1.0986328125,0.9832763671875,-91.7578125
2021-09-22 20:54:41.616660,-0.021484375,0.01416015625,1.001953125,1.109619140625,0.955810546875,-91.7852783203125
2021-09-22 20:54:41.626548,-0.0205078125,0.0146484375,0.998046875,1.1151123046875,0.9228515625,-91.8072509765625
2021-09-22 20:54:41.636752,-0.01953125,0.01806640625,0.99658203125,1.12060546875,0.8953857421875,-91.8292236328125
2021-09-22 20:54:41.646636,-0.01708984375,0.0185546875,0.99169921875,1.12060546875,0.867919921875,-91.845703125
2021-09-22 20:54:41.656515,-0.017578125,0.02197265625,0.9931640625,1.1260986328125,0.8404541015625,-91.86767578125
2021-09-22 20:54:41.666427,-0.015625,0.02294921875,0.98828125,1.131591796875,0.81298828125,-91.878662109375
2021-09-22 20:54:41.676544,-0.0146484375,0.02685546875,0.98486328125,1.142578125,0.7855224609375,-91.8951416015625
2021-09-22 20:54:41.686458,-0.0166015625,0.02783203125,0.98583984375,1.153564453125,0.7635498046875,-91.9061279296875
2021-09-22 20:54:41.696419,-0.015625,0.02880859375,0.98583984375,1.16455078125,0.7415771484375,-91.9171142578125
2021-09-22 20:54:41.707031,-0.0185546875,0.029296875,0.9892578125,1.1700439453125,0.7196044921875,-91.9281005859375
2021-09-22 20:54:41.716394,-0.01953125,0.02880859375,0.9912109375,1.175537109375,0.703125,-91.9390869140625
2021-09-22 20:54:41.726282,-0.01953125,0.02734375,0.99365234375,1.1700439453125,0.692138671875,-91.944580078125
2021-09-22 20:54:41.736213,-0.01806640625,0.02587890625,0.9951171875,1.1590576171875,0.68115234375,-91.95556640625
2021-09-22 20:54:41.746292,-0.017578125,0.0234375,0.99267578125,1.131591796875,0.6756591796875,-91.9610595703125
2021-09-22 20:54:41.756260,-0.01513671875,0.0234375,0.99267578125,1.0986328125,0.670166015625,-91.966552734375
2021-09-22 20:54:41.766282,-0.0146484375,0.02685546875,0.99365234375,1.065673828125,0.670166015625,-91.966552734375
2021-09-22 20:54:41.776358,-0.0126953125,0.02783203125,0.99267578125,1.03271484375,0.670166015625,-91.966552734375
2021-09-22 20:54:41.785984,-0.0126953125,0.02783203125,0.994140625,0.999755859375,0.6756591796875,-91.966552734375
2021-09-22 20:54:41.796104,-0.01123046875,0.02294921875,0.99609375,0.966796875,0.68115234375,-91.95556640625
2021-09-22 20:54:41.806022,-0.01171875,0.01953125,0.998046875,0.9283447265625,0.692138671875,-91.944580078125
2021-09-22 20:54:41.816108,-0.0166015625,0.01611328125,1.0029296875,0.8953857421875,0.703125,-91.93359375
2021-09-22 20:54:41.826025,-0.015625,0.01220703125,1.0078125,0.8624267578125,0.714111328125,-91.9171142578125
2021-09-22 20:54:41.836080,-0.01416015625,0.013671875,1.0126953125,0.8294677734375,0.7305908203125,-91.900634765625
2021-09-22 20:54:41.846071,-0.01513671875,0.01513671875,1.0146484375,0.7965087890625,0.7470703125,-91.878662109375
2021-09-22 20:54:41.855948,-0.01416015625,0.0146484375,1.0146484375,0.76904296875,0.758056640625,-91.856689453125
2021-09-22 20:54:41.865858,-0.013671875,0.015625,1.01171875,0.7470703125,0.7745361328125,-91.8402099609375
2021-09-22 20:54:41.875744,-0.01416015625,0.0166015625,1.01318359375,0.7305908203125,0.791015625,-91.8182373046875
2021-09-22 20:54:41.885860,-0.0126953125,0.01806640625,1.01025390625,0.7305908203125,0.8074951171875,-91.7962646484375
2021-09-22 20:54:41.895911,-0.01123046875,0.0205078125,1.01025390625,0.7305908203125,0.8184814453125,-91.77978515625
2021-09-22 20:54:41.906013,-0.01318359375,0.01953125,1.0126953125,0.7470703125,0.8294677734375,-91.7633056640625
2021-09-22 20:54:41.915696,-0.01220703125,0.0185546875,1.01416015625,0.7635498046875,0.8404541015625,-91.746826171875
2021-09-22 20:54:41.925790,-0.01220703125,0.0185546875,1.013671875,0.7855224609375,0.845947265625,-91.73583984375
2021-09-22 20:54:41.935684,-0.01171875,0.0166015625,1.015625,0.81298828125,0.85693359375,-91.724853515625
2021-09-22 20:54:41.945569,-0.01220703125,0.01708984375,1.01953125,0.8349609375,0.8624267578125,-91.7138671875
2021-09-22 20:54:41.955435,-0.00830078125,0.017578125,1.01904296875,0.8624267578125,0.8624267578125,-91.7083740234375
2021-09-22 20:54:41.965546,-0.0068359375,0.02294921875,1.01904296875,0.889892578125,0.867919921875,-91.702880859375
2021-09-22 20:54:41.975554,-0.0078125,0.02734375,1.0224609375,0.9173583984375,0.867919921875,-91.69189453125
2021-09-22 20:54:41.985397,-0.0078125,0.02880859375,1.02294921875,0.9393310546875,0.867919921875,-91.6864013671875
2021-09-22 20:54:41.995493,-0.00732421875,0.0322265625,1.01953125,0.9722900390625,0.867919921875,-91.680908203125
2021-09-22 20:54:42.005428,-0.0068359375,0.0302734375,1.0185546875,0.999755859375,0.867919921875,-91.680908203125
2021-09-22 20:54:42.015353,-0.00732421875,0.02978515625,1.01513671875,1.0272216796875,0.8624267578125,-91.6754150390625
2021-09-22 20:54:42.025193,-0.0048828125,0.02978515625,1.015625,1.0601806640625,0.8514404296875,-91.6754150390625
2021-09-22 20:54:42.035425,-0.00634765625,0.02880859375,1.02001953125,1.0986328125,0.8404541015625,-91.6754150390625
2021-09-22 20:54:42.045292,-0.00927734375,0.0244140625,1.02197265625,1.1260986328125,0.8294677734375,-91.680908203125
2021-09-22 20:54:42.055218,-0.00927734375,0.0234375,1.01904296875,1.1590576171875,0.81298828125,-91.6864013671875
2021-09-22 20:54:42.065104,-0.009765625,0.0234375,1.01806640625,1.197509765625,0.791015625,-91.69189453125
2021-09-22 20:54:42.075196,-0.009765625,0.0234375,1.015625,1.2359619140625,0.76904296875,-91.702880859375
2021-09-22 20:54:42.085036,-0.0087890625,0.02392578125,1.01318359375,1.2744140625,0.7415771484375,-91.7138671875
2021-09-22 20:54:42.095057,-0.00927734375,0.0244140625,1.01123046875,1.3238525390625,0.7086181640625,-91.7303466796875
2021-09-22 20:54:42.105112,-0.005859375,0.021484375,1.0126953125,1.373291015625,0.670166015625,-91.7413330078125
2021-09-22 20:54:42.115030,-0.0048828125,0.02392578125,1.01123046875,1.42822265625,0.6317138671875,-91.7578125
2021-09-22 20:54:42.124974,-0.00439453125,0.02490234375,1.0068359375,1.4886474609375,0.5877685546875,-91.7742919921875
2021-09-22 20:54:42.134846,-0.0029296875,0.02490234375,0.99951171875,1.549072265625,0.538330078125,-91.790771484375
2021-09-22 20:54:42.144746,-0.00048828125,0.02490234375,0.99755859375,1.6204833984375,0.4888916015625,-91.8072509765625
2021-09-22 20:54:42.154912,0.0009765625,0.02734375,0.99755859375,1.6973876953125,0.4339599609375,-91.8182373046875
2021-09-22 20:54:42.164850,0.00341796875,0.02734375,0.99658203125,1.7742919921875,0.3790283203125,-91.8292236328125
2021-09-22 20:54:42.174737,0.001953125,0.02685546875,0.9912109375,1.856689453125,0.3240966796875,-91.8402099609375
2021-09-22 20:54:42.184782,-0.00048828125,0.02783203125,0.9931640625,1.93359375,0.274658203125,-91.845703125
2021-09-22 20:54:42.194698,-0.00537109375,0.02734375,0.99365234375,2.0050048828125,0.230712890625,-91.845703125
2021-09-22 20:54:42.205299,-0.00634765625,0.02880859375,0.99658203125,2.0599365234375,0.186767578125,-91.845703125
2021-09-22 20:54:42.214498,-0.00634765625,0.0302734375,0.99658203125,2.1038818359375,0.15380859375,-91.845703125
2021-09-22 20:54:42.224690,-0.0048828125,0.02880859375,0.99609375,2.13134765625,0.1263427734375,-91.8402099609375
2021-09-22 20:54:42.234603,0.0,0.02490234375,0.9951171875,2.1368408203125,0.1043701171875,-91.8402099609375
2021-09-22 20:54:42.243775,0.0,0.02392578125,0.9892578125,2.1258544921875,0.087890625,-91.8292236328125
2021-09-22 20:54:42.253866,0.0029296875,0.029296875,0.9833984375,2.109375,0.076904296875,-91.8182373046875
2021-09-22 20:54:42.264547,0.00244140625,0.03076171875,0.9814453125,2.08740234375,0.06591796875,-91.8017578125
2021-09-22 20:54:42.274470,0.0029296875,0.0302734375,0.9765625,2.0709228515625,0.0604248046875,-91.7852783203125
2021-09-22 20:54:42.284481,-0.00048828125,0.0302734375,0.98193359375,2.054443359375,0.054931640625,-91.7633056640625
2021-09-22 20:54:42.294476,-0.00244140625,0.02880859375,0.98681640625,2.0379638671875,0.0494384765625,-91.7413330078125
2021-09-22 20:54:42.304323,-0.005859375,0.0263671875,0.9873046875,2.0269775390625,0.054931640625,-91.7193603515625
2021-09-22 20:54:42.314283,-0.00732421875,0.02099609375,0.9912109375,2.010498046875,0.054931640625,-91.6973876953125
2021-09-22 20:54:42.324181,-0.005859375,0.01904296875,0.9931640625,1.988525390625,0.054931640625,-91.680908203125
2021-09-22 20:54:42.334280,-0.00732421875,0.02001953125,0.9951171875,1.966552734375,0.06591796875,-91.6644287109375
2021-09-22 20:54:42.344216,-0.00927734375,0.02197265625,0.99755859375,1.9390869140625,0.0714111328125,-91.64794921875
2021-09-22 20:54:42.354280,-0.0078125,0.025390625,0.994140625,1.9171142578125,0.0823974609375,-91.636962890625
2021-09-22 20:54:42.364258,-0.005859375,0.02685546875,0.9931640625,1.8951416015625,0.0933837890625,-91.6314697265625
2021-09-22 20:54:42.374117,-0.0048828125,0.02734375,0.99462890625,1.878662109375,0.1043701171875,-91.6259765625
2021-09-22 20:54:42.384078,-0.00341796875,0.0283203125,0.994140625,1.8621826171875,0.10986328125,-91.6259765625
2021-09-22 20:54:42.394045,-0.001953125,0.0263671875,0.99560546875,1.8511962890625,0.120849609375,-91.6314697265625
2021-09-22 20:54:42.404067,0.0009765625,0.0263671875,0.99560546875,1.845703125,0.120849609375,-91.636962890625
2021-09-22 20:54:42.414081,0.0,0.0244140625,0.994140625,1.8402099609375,0.1263427734375,-91.64794921875
2021-09-22 20:54:42.423393,-0.00146484375,0.02490234375,0.99462890625,1.834716796875,0.1318359375,-91.658935546875
2021-09-22 20:54:42.434100,-0.00146484375,0.0263671875,0.99560546875,1.8292236328125,0.1373291015625,-91.669921875
2021-09-22 20:54:42.443970,-0.00341796875,0.02880859375,0.99609375,1.82373046875,0.142822265625,-91.6864013671875
2021-09-22 20:54:42.453892,-0.00390625,0.02978515625,0.99609375,1.8182373046875,0.15380859375,-91.7083740234375
2021-09-22 20:54:42.463753,-0.00244140625,0.03271484375,0.99755859375,1.8072509765625,0.1593017578125,-91.724853515625
2021-09-22 20:54:42.473651,-0.0009765625,0.033203125,1.00048828125,1.790771484375,0.1702880859375,-91.7523193359375
2021-09-22 20:54:42.483716,-0.00341796875,0.03466796875,0.99951171875,1.7742919921875,0.1812744140625,-91.7742919921875
2021-09-22 20:54:42.493636,-0.0048828125,0.0322265625,1.00244140625,1.746826171875,0.19775390625,-91.8017578125
2021-09-22 20:54:42.503615,-0.00537109375,0.03125,1.0009765625,1.7193603515625,0.2197265625,-91.8292236328125
2021-09-22 20:54:42.513955,-0.00341796875,0.03125,1.00634765625,1.6864013671875,0.2362060546875,-91.8621826171875
2021-09-22 20:54:42.523739,-0.00341796875,0.03466796875,1.00634765625,1.6534423828125,0.252685546875,-91.8896484375
2021-09-22 20:54:42.533526,-0.00244140625,0.0322265625,1.0048828125,1.6204833984375,0.274658203125,-91.91162109375
2021-09-22 20:54:42.543429,-0.001953125,0.03271484375,1.0048828125,1.58203125,0.296630859375,-91.93359375
2021-09-22 20:54:42.553522,-0.00146484375,0.02685546875,1.0068359375,1.549072265625,0.3131103515625,-91.95556640625
2021-09-22 20:54:42.563415,-0.00390625,0.025390625,1.00927734375,1.51611328125,0.340576171875,-91.9775390625
2021-09-22 20:54:42.573368,-0.00732421875,0.0244140625,1.013671875,1.483154296875,0.362548828125,-91.9940185546875
2021-09-22 20:54:42.583393,-0.00830078125,0.02197265625,1.0146484375,1.4556884765625,0.384521484375,-92.0050048828125
2021-09-22 20:54:42.593418,-0.0126953125,0.02197265625,1.01513671875,1.4337158203125,0.406494140625,-92.0159912109375
2021-09-22 20:54:42.603250,-0.0126953125,0.0224609375,1.017578125,1.417236328125,0.428466796875,-92.0269775390625
2021-09-22 20:54:42.613270,-0.0166015625,0.02099609375,1.02099609375,1.40625,0.450439453125,-92.0379638671875
2021-09-22 20:54:42.623191,-0.021484375,0.017578125,1.0263671875,1.3897705078125,0.472412109375,-92.0489501953125
2021-09-22 20:54:42.633219,-0.02197265625,0.01513671875,1.0283203125,1.3787841796875,0.4888916015625,-92.0599365234375
2021-09-22 20:54:42.643136,-0.021484375,0.01416015625,1.02783203125,1.3623046875,0.5108642578125,-92.0654296875
2021-09-22 20:54:42.653145,-0.02197265625,0.01611328125,1.02392578125,1.3568115234375,0.52734375,-92.076416015625
2021-09-22 20:54:42.663185,-0.0185546875,0.02001953125,1.02099609375,1.351318359375,0.538330078125,-92.08740234375
2021-09-22 20:54:42.673074,-0.017578125,0.02294921875,1.0205078125,1.3568115234375,0.54931640625,-92.098388671875
2021-09-22 20:54:42.683004,-0.01318359375,0.0263671875,1.017578125,1.3677978515625,0.54931640625,-92.1038818359375
2021-09-22 20:54:42.692889,-0.01171875,0.02587890625,1.01806640625,1.3897705078125,0.5548095703125,-92.109375
2021-09-22 20:54:42.703522,-0.01318359375,0.025390625,1.01953125,1.40625,0.54931640625,-92.109375
2021-09-22 20:54:42.712908,-0.01025390625,0.025390625,1.01904296875,1.4337158203125,0.5438232421875,-92.109375
2021-09-22 20:54:42.722895,-0.01123046875,0.02587890625,1.01904296875,1.4556884765625,0.538330078125,-92.098388671875
2021-09-22 20:54:42.732797,-0.00927734375,0.02587890625,1.02099609375,1.483154296875,0.52734375,-92.0928955078125
2021-09-22 20:54:42.742855,-0.01025390625,0.02783203125,1.02294921875,1.505126953125,0.5218505859375,-92.076416015625
2021-09-22 20:54:42.752780,-0.01025390625,0.02978515625,1.017578125,1.527099609375,0.5108642578125,-92.0599365234375
2021-09-22 20:54:42.762684,-0.01171875,0.03173828125,1.01904296875,1.5435791015625,0.4998779296875,-92.04345703125
2021-09-22 20:54:42.772590,-0.01318359375,0.0302734375,1.01708984375,1.56005859375,0.494384765625,-92.021484375
2021-09-22 20:54:42.782704,-0.013671875,0.0302734375,1.01904296875,1.5655517578125,0.4888916015625,-91.99951171875
2021-09-22 20:54:42.792698,-0.0146484375,0.0283203125,1.01806640625,1.571044921875,0.4833984375,-91.9830322265625
2021-09-22 20:54:42.802613,-0.01611328125,0.02880859375,1.01708984375,1.5765380859375,0.4779052734375,-91.9610595703125
2021-09-22 20:54:42.812676,-0.01416015625,0.02783203125,1.0166015625,1.58203125,0.4669189453125,-91.944580078125
2021-09-22 20:54:42.822551,-0.015625,0.0283203125,1.01904296875,1.58203125,0.46142578125,-91.9281005859375
2021-09-22 20:54:42.832458,-0.01220703125,0.02490234375,1.01904296875,1.58203125,0.4559326171875,-91.91162109375
2021-09-22 20:54:42.842401,-0.01171875,0.02294921875,1.02099609375,1.58203125,0.4449462890625,-91.8951416015625
2021-09-22 20:54:42.852485,-0.01171875,0.025390625,1.01953125,1.58203125,0.439453125,-91.878662109375
2021-09-22 20:54:42.862384,-0.0107421875,0.02587890625,1.02197265625,1.5875244140625,0.4339599609375,-91.86767578125
2021-09-22 20:54:42.872597,-0.009765625,0.02490234375,1.02197265625,1.60400390625,0.428466796875,-91.8511962890625
2021-09-22 20:54:42.882432,-0.009765625,0.0224609375,1.0224609375,1.6204833984375,0.41748046875,-91.834716796875
2021-09-22 20:54:42.892329,-0.01025390625,0.02099609375,1.02294921875,1.6424560546875,0.4119873046875,-91.8182373046875
2021-09-22 20:54:42.902213,-0.0087890625,0.01806640625,1.02197265625,1.669921875,0.4010009765625,-91.8017578125
2021-09-22 20:54:42.912154,-0.005859375,0.01806640625,1.02001953125,1.702880859375,0.3955078125,-91.77978515625
2021-09-22 20:54:42.922205,-0.0048828125,0.0224609375,1.02001953125,1.746826171875,0.384521484375,-91.7633056640625
2021-09-22 20:54:42.932214,-0.00439453125,0.0224609375,1.01806640625,1.7962646484375,0.37353515625,-91.746826171875
2021-09-22 20:54:42.942118,-0.00390625,0.02490234375,1.0166015625,1.8511962890625,0.3680419921875,-91.7303466796875
2021-09-22 20:54:42.952172,-0.0029296875,0.0283203125,1.015625,1.91162109375,0.362548828125,-91.7138671875
2021-09-22 20:54:42.962123,-0.001953125,0.02880859375,1.01708984375,1.9775390625,0.362548828125,-91.6973876953125
2021-09-22 20:54:42.972055,0.0,0.0283203125,1.01416015625,2.0379638671875,0.362548828125,-91.680908203125
2021-09-22 20:54:42.981283,-0.001953125,0.0302734375,1.01171875,2.1038818359375,0.3680419921875,-91.6644287109375
2021-09-22 20:54:42.992064,-0.0009765625,0.03125,1.0107421875,2.164306640625,0.37353515625,-91.64794921875
2021-09-22 20:54:43.001975,-0.00048828125,0.02978515625,1.01171875,2.2247314453125,0.3900146484375,-91.6314697265625
2021-09-22 20:54:43.011888,0.0009765625,0.03076171875,1.00927734375,2.28515625,0.4010009765625,-91.614990234375
2021-09-22 20:54:43.021923,0.00048828125,0.0341796875,1.00830078125,2.35107421875,0.4229736328125,-91.5985107421875
2021-09-22 20:54:43.031863,0.0009765625,0.0361328125,1.00732421875,2.4169921875,0.439453125,-91.5875244140625
2021-09-22 20:54:43.041795,0.0009765625,0.03759765625,1.005859375,2.48291015625,0.46142578125,-91.5765380859375
2021-09-22 20:54:43.051690,0.00048828125,0.03515625,1.00537109375,2.5433349609375,0.4888916015625,-91.5655517578125
2021-09-22 20:54:43.061740,0.00048828125,0.03759765625,1.0,2.61474609375,0.516357421875,-91.5545654296875
2021-09-22 20:54:43.071957,0.0009765625,0.03955078125,0.998046875,2.6861572265625,0.538330078125,-91.5435791015625
2021-09-22 20:54:43.081685,-0.001953125,0.0419921875,0.99560546875,2.7630615234375,0.5657958984375,-91.5380859375
2021-09-22 20:54:43.091555,-0.001953125,0.0439453125,0.99658203125,2.845458984375,0.5987548828125,-91.5380859375
2021-09-22 20:54:43.101675,-0.001953125,0.04296875,0.99267578125,2.9278564453125,0.626220703125,-91.5325927734375
2021-09-22 20:54:43.111566,-0.00146484375,0.04638671875,0.99560546875,3.01025390625,0.6536865234375,-91.5380859375
2021-09-22 20:54:43.121454,-0.00390625,0.0478515625,0.99462890625,3.087158203125,0.6866455078125,-91.5435791015625
2021-09-22 20:54:43.131332,-0.005859375,0.0478515625,0.99462890625,3.1640625,0.7196044921875,-91.549072265625
2021-09-22 20:54:43.141525,-0.005859375,0.0478515625,0.99462890625,3.240966796875,0.7525634765625,-91.56005859375
2021-09-22 20:54:43.151446,-0.00732421875,0.04833984375,0.99755859375,3.3123779296875,0.7855224609375,-91.571044921875
2021-09-22 20:54:43.161335,-0.0078125,0.0498046875,0.99365234375,3.372802734375,0.823974609375,-91.5875244140625
2021-09-22 20:54:43.171225,-0.00634765625,0.0498046875,0.998046875,3.427734375,0.8624267578125,-91.60400390625
2021-09-22 20:54:43.181106,-0.0048828125,0.052734375,0.99755859375,3.4771728515625,0.90087890625,-91.6259765625
2021-09-22 20:54:43.191208,-0.005859375,0.05517578125,0.99658203125,3.5211181640625,0.933837890625,-91.6424560546875
2021-09-22 20:54:43.201883,-0.0068359375,0.0576171875,0.99609375,3.570556640625,0.966796875,-91.6644287109375
2021-09-22 20:54:43.211129,-0.0078125,0.05908203125,0.99267578125,3.614501953125,0.999755859375,-91.6864013671875
2021-09-22 20:54:43.220993,-0.0078125,0.05859375,0.99365234375,3.6639404296875,1.0272216796875,-91.7083740234375
2021-09-22 20:54:43.231115,-0.0126953125,0.05859375,0.990234375,3.71337890625,1.0546875,-91.724853515625
2021-09-22 20:54:43.241024,-0.01513671875,0.06201171875,0.98974609375,3.768310546875,1.07666015625,-91.7523193359375
2021-09-22 20:54:43.250993,-0.015625,0.06787109375,0.98876953125,3.8232421875,1.0986328125,-91.7742919921875
2021-09-22 20:54:43.260835,-0.0146484375,0.0693359375,0.98681640625,3.878173828125,1.1151123046875,-91.7962646484375
2021-09-22 20:54:43.271222,-0.01416015625,0.0703125,0.9873046875,3.9385986328125,1.1260986328125,-91.82373046875
2021-09-22 20:54:43.280913,-0.0146484375,0.0712890625,0.9873046875,3.9935302734375,1.131591796875,-91.8511962890625
2021-09-22 20:54:43.290817,-0.01416015625,0.07373046875,0.98681640625,4.053955078125,1.131591796875,-91.8731689453125
2021-09-22 20:54:43.300913,-0.01611328125,0.07666015625,0.98779296875,4.119873046875,1.131591796875,-91.900634765625
2021-09-22 20:54:43.310775,-0.01611328125,0.07861328125,0.98681640625,4.185791015625,1.1260986328125,-91.9281005859375
2021-09-22 20:54:43.320744,-0.013671875,0.07861328125,0.98876953125,4.2462158203125,1.1151123046875,-91.9500732421875
2021-09-22 20:54:43.330686,-0.0107421875,0.08056640625,0.9873046875,4.3011474609375,1.0986328125,-91.9775390625
2021-09-22 20:54:43.340839,-0.01123046875,0.08203125,0.98828125,4.3560791015625,1.0821533203125,-91.99951171875
2021-09-22 20:54:43.350684,-0.009765625,0.08056640625,0.98681640625,4.39453125,1.065673828125,-92.021484375
2021-09-22 20:54:43.360589,-0.0078125,0.0859375,0.9833984375,4.4384765625,1.043701171875,-92.04345703125
2021-09-22 20:54:43.370537,-0.00634765625,0.087890625,0.9814453125,4.471435546875,1.0162353515625,-92.0599365234375
2021-09-22 20:54:43.380629,-0.0068359375,0.091796875,0.98095703125,4.50439453125,0.98876953125,-92.0819091796875
2021-09-22 20:54:43.390544,-0.00732421875,0.09326171875,0.98046875,4.5318603515625,0.9613037109375,-92.098388671875
2021-09-22 20:54:43.400432,-0.009765625,0.095703125,0.9794921875,4.559326171875,0.9393310546875,-92.1148681640625
2021-09-22 20:54:43.410424,-0.0126953125,0.0966796875,0.98046875,4.5758056640625,0.9173583984375,-92.13134765625
2021-09-22 20:54:43.420466,-0.01171875,0.09716796875,0.98193359375,4.59228515625,0.8953857421875,-92.1533203125
2021-09-22 20:54:43.430413,-0.01123046875,0.1005859375,0.984375,4.603271484375,0.8734130859375,-92.17529296875
2021-09-22 20:54:43.440266,-0.01025390625,0.1005859375,0.982421875,4.603271484375,0.85693359375,-92.1917724609375
2021-09-22 20:54:43.450428,-0.01171875,0.09912109375,0.98876953125,4.603271484375,0.8404541015625,-92.2137451171875
2021-09-22 20:54:43.460297,-0.0087890625,0.10107421875,0.99267578125,4.59228515625,0.8294677734375,-92.2357177734375
2021-09-22 20:54:43.470258,-0.00537109375,0.1005859375,0.9951171875,4.581298828125,0.8184814453125,-92.252197265625
2021-09-22 20:54:43.480175,-0.0029296875,0.10107421875,0.9990234375,4.5703125,0.8074951171875,-92.2686767578125
2021-09-22 20:54:43.490257,-0.0029296875,0.1005859375,0.99755859375,4.559326171875,0.7965087890625,-92.2796630859375
2021-09-22 20:54:43.500153,-0.00390625,0.09912109375,1.0029296875,4.5428466796875,0.791015625,-92.28515625
2021-09-22 20:54:43.510000,-0.0078125,0.0966796875,1.0068359375,4.5318603515625,0.791015625,-92.2906494140625
2021-09-22 20:54:43.520094,-0.00927734375,0.0927734375,1.01025390625,4.5263671875,0.791015625,-92.2906494140625
2021-09-22 20:54:43.530102,-0.01025390625,0.091796875,1.0107421875,4.5208740234375,0.791015625,-92.2906494140625
2021-09-22 20:54:43.540087,-0.01220703125,0.09326171875,1.00927734375,4.5263671875,0.791015625,-92.2906494140625
2021-09-22 20:54:43.550118,-0.01416015625,0.09423828125,1.013671875,4.537353515625,0.791015625,-92.2906494140625
2021-09-22 20:54:43.560039,-0.01806640625,0.09326171875,1.01953125,4.559326171875,0.7965087890625,-92.28515625
2021-09-22 20:54:43.569966,-0.02294921875,0.0927734375,1.03125,4.581298828125,0.7965087890625,-92.274169921875
2021-09-22 20:54:43.579812,-0.02783203125,0.08984375,1.03564453125,4.6087646484375,0.8074951171875,-92.2686767578125
2021-09-22 20:54:43.589752,-0.02880859375,0.08544921875,1.0380859375,4.6307373046875,0.81298828125,-92.2576904296875
2021-09-22 20:54:43.599894,-0.02587890625,0.08447265625,1.04443359375,4.6527099609375,0.8184814453125,-92.2467041015625
2021-09-22 20:54:43.609878,-0.021484375,0.08740234375,1.04345703125,4.6746826171875,0.8184814453125,-92.2247314453125
2021-09-22 20:54:43.619682,-0.01513671875,0.09228515625,1.03857421875,4.7021484375,0.8184814453125,-92.2027587890625
2021-09-22 20:54:43.629785,-0.009765625,0.09716796875,1.03466796875,4.7406005859375,0.81298828125,-92.1697998046875
2021-09-22 20:54:43.639698,-0.00439453125,0.103515625,1.0283203125,4.7845458984375,0.7965087890625,-92.1258544921875
2021-09-22 20:54:43.649596,0.0,0.10595703125,1.0263671875,4.844970703125,0.780029296875,-92.0709228515625
2021-09-22 20:54:43.658848,0.0029296875,0.10791015625,1.0224609375,4.9163818359375,0.7525634765625,-92.0050048828125
2021-09-22 20:54:43.669804,0.0029296875,0.10595703125,1.02197265625,4.998779296875,0.7196044921875,-91.9281005859375
2021-09-22 20:54:43.679623,0.00244140625,0.103515625,1.02392578125,5.086669921875,0.68115234375,-91.8402099609375
2021-09-22 20:54:43.689451,0.00341796875,0.10009765625,1.0244140625,5.1800537109375,0.63720703125,-91.7413330078125
2021-09-22 20:54:43.700030,0.00341796875,0.09716796875,1.029296875,5.2679443359375,0.59326171875,-91.636962890625
2021-09-22 20:54:43.709464,0.0,0.095703125,1.0302734375,5.350341796875,0.54931640625,-91.5216064453125
2021-09-22 20:54:43.718681,-0.00244140625,0.10107421875,1.0283203125,5.42724609375,0.50537109375,-91.4007568359375
2021-09-22 20:54:43.729289,-0.005859375,0.1015625,1.0283203125,5.4931640625,0.46142578125,-91.2799072265625
2021-09-22 20:54:43.739579,-0.01025390625,0.099609375,1.0263671875,5.5535888671875,0.4229736328125,-91.153564453125
2021-09-22 20:54:43.749399,-0.01123046875,0.0986328125,1.025390625,5.5975341796875,0.3790283203125,-91.021728515625
2021-09-22 20:54:43.759244,-0.0087890625,0.09912109375,1.02392578125,5.6414794921875,0.3350830078125,-90.8953857421875
2021-09-22 20:54:43.769128,-0.00390625,0.11083984375,1.0244140625,5.6854248046875,0.28564453125,-90.7745361328125
2021-09-22 20:54:43.779287,0.0,0.1220703125,1.02001953125,5.73486328125,0.2252197265625,-90.6536865234375
2021-09-22 20:54:43.788526,0.00439453125,0.1298828125,1.015625,5.789794921875,0.164794921875,-90.538330078125
2021-09-22 20:54:43.799253,0.00439453125,0.13525390625,1.00927734375,5.8502197265625,0.0933837890625,-90.428466796875
2021-09-22 20:54:43.809317,0.0009765625,0.13427734375,1.00830078125,5.91064453125,0.02197265625,-90.3350830078125
2021-09-22 20:54:43.819135,-0.00341796875,0.1279296875,1.00390625,5.9765625,-0.0494384765625,-90.2471923828125
2021-09-22 20:54:43.828981,-0.0078125,0.1201171875,1.00830078125,6.04248046875,-0.1263427734375,-90.17578125
2021-09-22 20:54:43.839094,-0.01025390625,0.111328125,1.01025390625,6.1029052734375,-0.2032470703125,-90.120849609375
2021-09-22 20:54:43.849002,-0.01318359375,0.1015625,1.0146484375,6.1578369140625,-0.28564453125,-90.0823974609375
2021-09-22 20:54:43.858876,-0.01318359375,0.0986328125,1.01953125,6.207275390625,-0.362548828125,-90.0604248046875
2021-09-22 20:54:43.868933,-0.0068359375,0.1015625,1.02197265625,6.2457275390625,-0.4449462890625,-90.0494384765625
2021-09-22 20:54:43.878973,-0.00048828125,0.1083984375,1.01953125,6.2786865234375,-0.5328369140625,-90.0604248046875
2021-09-22 20:54:43.888817,0.00390625,0.11328125,1.015625,6.3006591796875,-0.615234375,-90.0823974609375
2021-09-22 20:54:43.898789,0.00048828125,0.11376953125,1.013671875,6.317138671875,-0.692138671875,-90.1153564453125
2021-09-22 20:54:43.908962,0.0009765625,0.1171875,1.00927734375,6.3336181640625,-0.7635498046875,-90.1593017578125
2021-09-22 20:54:43.918830,-0.00439453125,0.115234375,1.005859375,6.35009765625,-0.8294677734375,-90.2142333984375
2021-09-22 20:54:43.928655,-0.0126953125,0.10791015625,1.00634765625,6.3720703125,-0.889892578125,-90.28564453125
2021-09-22 20:54:43.938961,-0.01806640625,0.1044921875,1.00634765625,6.405029296875,-0.9393310546875,-90.3680419921875
2021-09-22 20:54:43.948630,-0.017578125,0.1005859375,1.0087890625,6.448974609375,-0.977783203125,-90.4669189453125
2021-09-22 20:54:43.958469,-0.015625,0.09814453125,1.0107421875,6.5093994140625,-1.0162353515625,-90.5767822265625
2021-09-22 20:54:43.968562,-0.00732421875,0.09716796875,1.013671875,6.5753173828125,-1.0491943359375,-90.692138671875
2021-09-22 20:54:43.978495,-0.00146484375,0.09765625,1.0146484375,6.65771484375,-1.07666015625,-90.81298828125
2021-09-22 20:54:43.988559,0.01416015625,0.1064453125,1.013671875,6.756591796875,-1.109619140625,-90.933837890625
2021-09-22 20:54:43.998525,0.025390625,0.119140625,1.013671875,6.8719482421875,-1.1370849609375,-91.0491943359375
2021-09-22 20:54:44.008552,0.03125,0.12646484375,1.00830078125,7.0037841796875,-1.1590576171875,-91.1590576171875
2021-09-22 20:54:44.018350,0.03076171875,0.12841796875,1.00732421875,7.14111328125,-1.1700439453125,-91.263427734375
2021-09-22 20:54:44.028296,0.02587890625,0.12939453125,1.0,7.2894287109375,-1.1700439453125,-91.351318359375
2021-09-22 20:54:44.038397,0.02490234375,0.126953125,0.99267578125,7.4542236328125,-1.1590576171875,-91.439208984375
2021-09-22 20:54:44.048252,0.02197265625,0.12353515625,0.9892578125,7.62451171875,-1.1370849609375,-91.5106201171875
2021-09-22 20:54:44.058187,0.0185546875,0.12060546875,0.9873046875,7.80029296875,-1.1041259765625,-91.58203125
2021-09-22 20:54:44.068221,0.0185546875,0.11376953125,0.9892578125,7.9815673828125,-1.065673828125,-91.64794921875
2021-09-22 20:54:44.078248,0.025390625,0.10888671875,0.99365234375,8.1573486328125,-1.0162353515625,-91.702880859375
2021-09-22 20:54:44.088083,0.0361328125,0.11279296875,0.9951171875,8.3331298828125,-0.966796875,-91.7523193359375
2021-09-22 20:54:44.098000,0.0478515625,0.1201171875,0.99169921875,8.5089111328125,-0.911865234375,-91.7962646484375
2021-09-22 20:54:44.108134,0.05224609375,0.12841796875,0.97802734375,8.67919921875,-0.85693359375,-91.82373046875
2021-09-22 20:54:44.117985,0.0537109375,0.138671875,0.97021484375,8.85498046875,-0.7965087890625,-91.845703125
2021-09-22 20:54:44.127987,0.048828125,0.140625,0.9638671875,9.0362548828125,-0.7305908203125,-91.856689453125
2021-09-22 20:54:44.137938,0.041015625,0.13818359375,0.96484375,9.217529296875,-0.6646728515625,-91.86767578125
2021-09-22 20:54:44.148035,0.0302734375,0.1376953125,0.9658203125,9.404296875,-0.5877685546875,-91.8731689453125
2021-09-22 20:54:44.157928,0.02392578125,0.140625,0.96435546875,9.591064453125,-0.5108642578125,-91.878662109375
2021-09-22 20:54:44.167800,0.01611328125,0.14306640625,0.96484375,9.77783203125,-0.4339599609375,-91.8951416015625
2021-09-22 20:54:44.177903,0.013671875,0.1455078125,0.96826171875,9.9591064453125,-0.3570556640625,-91.9171142578125
2021-09-22 20:54:44.187818,0.01416015625,0.1484375,0.9697265625,10.1348876953125,-0.2801513671875,-91.944580078125
2021-09-22 20:54:44.198512,0.02001953125,0.15576171875,0.96728515625,10.2996826171875,-0.208740234375,-91.9830322265625
2021-09-22 20:54:44.208255,0.025390625,0.1650390625,0.966796875,10.4644775390625,-0.1483154296875,-92.021484375
2021-09-22 20:54:44.218447,0.02978515625,0.17333984375,0.96728515625,10.61279296875,-0.0933837890625,-92.0709228515625
2021-09-22 20:54:44.228256,0.029296875,0.1787109375,0.962890625,10.7611083984375,-0.0494384765625,-92.120361328125
2021-09-22 20:54:44.238225,0.0185546875,0.18017578125,0.95947265625,10.9039306640625,-0.0054931640625,-92.17529296875
2021-09-22 20:54:44.248199,0.00439453125,0.181640625,0.958984375,11.041259765625,0.0274658203125,-92.2357177734375
2021-09-22 20:54:44.257666,-0.00830078125,0.18408203125,0.95849609375,11.1785888671875,0.0604248046875,-92.3016357421875
2021-09-22 20:54:44.268094,-0.01611328125,0.18603515625,0.96142578125,11.31591796875,0.0933837890625,-92.3785400390625
2021-09-22 20:54:44.278203,-0.02197265625,0.1943359375,0.95849609375,11.4532470703125,0.1153564453125,-92.4664306640625
2021-09-22 20:54:44.288107,-0.02685546875,0.19775390625,0.9599609375,11.5850830078125,0.1263427734375,-92.559814453125
2021-09-22 20:54:44.298137,-0.029296875,0.2001953125,0.9609375,11.71142578125,0.1318359375,-92.669677734375
2021-09-22 20:54:44.307937,-0.03076171875,0.20751953125,0.96044921875,11.84326171875,0.1318359375,-92.779541015625
2021-09-22 20:54:44.318013,-0.0322265625,0.21484375,0.96337890625,11.9696044921875,0.1153564453125,-92.8948974609375
2021-09-22 20:54:44.327858,-0.03515625,0.2177734375,0.95263671875,12.095947265625,0.0823974609375,-93.0157470703125
2021-09-22 20:54:44.337857,-0.0419921875,0.2216796875,0.94775390625,12.2332763671875,0.0439453125,-93.1365966796875
2021-09-22 20:54:44.347731,-0.048828125,0.22509765625,0.93603515625,12.3760986328125,0.0,-93.262939453125
2021-09-22 20:54:44.357801,-0.04931640625,0.22705078125,0.92578125,12.5299072265625,-0.06591796875,-93.3892822265625
2021-09-22 20:54:44.367365,-0.04296875,0.23095703125,0.919921875,12.7001953125,-0.142822265625,-93.515625
2021-09-22 20:54:44.377579,-0.0380859375,0.23486328125,0.9189453125,12.8704833984375,-0.24169921875,-93.6474609375
2021-09-22 20:54:44.387519,-0.03271484375,0.2373046875,0.91650390625,13.0462646484375,-0.3460693359375,-93.7847900390625
2021-09-22 20:54:44.397726,-0.0283203125,0.23828125,0.91162109375,13.2110595703125,-0.46142578125,-93.9111328125
2021-09-22 20:54:44.407630,-0.02294921875,0.24072265625,0.916015625,13.359375,-0.582275390625,-94.0374755859375
2021-09-22 20:54:44.417945,-0.017578125,0.24560546875,0.916015625,13.4857177734375,-0.703125,-94.1583251953125
2021-09-22 20:54:44.427483,-0.00732421875,0.24609375,0.919921875,13.5736083984375,-0.823974609375,-94.2626953125
2021-09-22 20:54:44.437275,0.0,0.2490234375,0.91650390625,13.6285400390625,-0.94482421875,-94.361572265625
2021-09-22 20:54:44.446463,0.0068359375,0.25390625,0.9150390625,13.64501953125,-1.0546875,-94.4384765625
2021-09-22 20:54:44.457064,0.0126953125,0.25244140625,0.91357421875,13.6285400390625,-1.16455078125,-94.4989013671875
2021-09-22 20:54:44.466999,0.02001953125,0.25146484375,0.90869140625,13.5736083984375,-1.2689208984375,-94.5428466796875
2021-09-22 20:54:44.476879,0.02685546875,0.25390625,0.90771484375,13.4967041015625,-1.3677978515625,-94.5703125
2021-09-22 20:54:44.486855,0.02783203125,0.248046875,0.908203125,13.392333984375,-1.4666748046875,-94.5703125
2021-09-22 20:54:44.496903,0.029296875,0.24267578125,0.90625,13.271484375,-1.56005859375,-94.5538330078125
2021-09-22 20:54:44.506688,0.02880859375,0.240234375,0.9072265625,13.1396484375,-1.6534423828125,-94.515380859375
2021-09-22 20:54:44.516908,0.02587890625,0.2353515625,0.90966796875,12.996826171875,-1.73583984375,-94.46044921875
2021-09-22 20:54:44.526819,0.02685546875,0.23193359375,0.91357421875,12.843017578125,-1.812744140625,-94.3890380859375
2021-09-22 20:54:44.536620,0.02880859375,0.22509765625,0.91845703125,12.6837158203125,-1.8896484375,-94.295654296875
2021-09-22 20:54:44.546784,0.02734375,0.216796875,0.9296875,12.513427734375,-1.9610595703125,-94.1802978515625
2021-09-22 20:54:44.556721,0.0283203125,0.21484375,0.939453125,12.337646484375,-2.0269775390625,-94.053955078125
2021-09-22 20:54:44.566548,0.02490234375,0.21240234375,0.94677734375,12.1563720703125,-2.08740234375,-93.9111328125
2021-09-22 20:54:44.576441,0.0185546875,0.20849609375,0.9443359375,11.9696044921875,-2.1368408203125,-93.75732421875
2021-09-22 20:54:44.586553,0.015625,0.2080078125,0.94580078125,11.77734375,-2.1807861328125,-93.5980224609375
2021-09-22 20:54:44.596415,0.01171875,0.20703125,0.94677734375,11.590576171875,-2.2137451171875,-93.4332275390625
2021-09-22 20:54:44.606438,0.0146484375,0.201171875,0.951171875,11.40380859375,-2.2467041015625,-93.2684326171875
2021-09-22 20:54:44.616545,0.0166015625,0.19091796875,0.9560546875,11.2115478515625,-2.274169921875,-93.1036376953125
2021-09-22 20:54:44.626438,0.01953125,0.1875,0.96484375,11.019287109375,-2.3016357421875,-92.9388427734375
2021-09-22 20:54:44.636338,0.02197265625,0.18017578125,0.96923828125,10.8270263671875,-2.3291015625,-92.779541015625
2021-09-22 20:54:44.646224,0.02783203125,0.1708984375,0.9697265625,10.634765625,-2.35107421875,-92.6202392578125
2021-09-22 20:54:44.656140,0.02392578125,0.1689453125,0.96728515625,10.447998046875,-2.3675537109375,-92.4609375
2021-09-22 20:54:44.666295,0.021484375,0.162109375,0.96826171875,10.2557373046875,-2.3785400390625,-92.3126220703125
2021-09-22 20:54:44.676215,0.02294921875,0.158203125,0.96435546875,10.074462890625,-2.3895263671875,-92.1697998046875
2021-09-22 20:54:44.686208,0.0244140625,0.15478515625,0.96728515625,9.898681640625,-2.3895263671875,-92.032470703125
2021-09-22 20:54:44.696775,0.03125,0.150390625,0.966796875,9.7283935546875,-2.39501953125,-91.9061279296875
2021-09-22 20:54:44.706123,0.041015625,0.14990234375,0.966796875,9.5635986328125,-2.4005126953125,-91.790771484375
2021-09-22 20:54:44.716077,0.04345703125,0.15478515625,0.96484375,9.404296875,-2.406005859375,-91.6754150390625
2021-09-22 20:54:44.725927,0.0419921875,0.1572265625,0.96630859375,9.2559814453125,-2.406005859375,-91.5765380859375
2021-09-22 20:54:44.736079,0.04345703125,0.1591796875,0.962890625,9.11865234375,-2.4005126953125,-91.4776611328125
2021-09-22 20:54:44.745969,0.041015625,0.16162109375,0.9638671875,8.98681640625,-2.3895263671875,-91.3897705078125
2021-09-22 20:54:44.755807,0.04296875,0.1611328125,0.96826171875,8.8604736328125,-2.3785400390625,-91.3128662109375
2021-09-22 20:54:44.765864,0.04638671875,0.16259765625,0.97265625,8.7286376953125,-2.3565673828125,-91.241455078125
2021-09-22 20:54:44.775936,0.04833984375,0.16259765625,0.97607421875,8.5968017578125,-2.3291015625,-91.1700439453125
2021-09-22 20:54:44.785897,0.05224609375,0.16015625,0.98193359375,8.4539794921875,-2.296142578125,-91.1041259765625
2021-09-22 20:54:44.795766,0.05517578125,0.15966796875,0.98828125,8.3056640625,-2.2576904296875,-91.03271484375
2021-09-22 20:54:44.805879,0.0546875,0.1591796875,0.9873046875,8.1463623046875,-2.208251953125,-90.9613037109375
2021-09-22 20:54:44.815797,0.05078125,0.15625,0.99267578125,7.97607421875,-2.1533203125,-90.8843994140625
2021-09-22 20:54:44.825722,0.0439453125,0.15185546875,0.99169921875,7.80029296875,-2.0819091796875,-90.8074951171875
2021-09-22 20:54:44.835696,0.0400390625,0.14794921875,0.9970703125,7.62451171875,-2.010498046875,-90.7196044921875
2021-09-22 20:54:44.845762,0.04052734375,0.1435546875,0.994140625,7.459716796875,-1.93359375,-90.6317138671875
2021-09-22 20:54:44.855627,0.041015625,0.14111328125,0.994140625,7.3004150390625,-1.8511962890625,-90.538330078125
2021-09-22 20:54:44.865753,0.03955078125,0.13671875,0.98828125,7.1630859375,-1.7742919921875,-90.4449462890625
2021-09-22 20:54:44.875441,0.0400390625,0.13037109375,0.9873046875,7.0367431640625,-1.69189453125,-90.3460693359375
2021-09-22 20:54:44.885535,0.04052734375,0.12744140625,0.9931640625,6.932373046875,-1.6204833984375,-90.2471923828125
2021-09-22 20:54:44.895401,0.04443359375,0.12841796875,0.9970703125,6.844482421875,-1.549072265625,-90.142822265625
2021-09-22 20:54:44.905335,0.04931640625,0.12646484375,1.00830078125,6.767578125,-1.4886474609375,-90.032958984375
2021-09-22 20:54:44.915301,0.0546875,0.12255859375,1.013671875,6.6961669921875,-1.42822265625,-89.923095703125
2021-09-22 20:54:44.925392,0.05615234375,0.1240234375,1.02001953125,6.6192626953125,-1.373291015625,-89.80224609375
2021-09-22 20:54:44.935300,0.06005859375,0.12646484375,1.0205078125,6.5478515625,-1.329345703125,-89.681396484375
2021-09-22 20:54:44.945132,0.0625,0.12841796875,1.02001953125,6.4764404296875,-1.285400390625,-89.560546875
2021-09-22 20:54:44.955355,0.06201171875,0.13232421875,1.01953125,6.3995361328125,-1.25244140625,-89.4342041015625
2021-09-22 20:54:44.965233,0.05712890625,0.13330078125,1.0283203125,6.3226318359375,-1.219482421875,-89.3133544921875
2021-09-22 20:54:44.975181,0.05419921875,0.13330078125,1.03173828125,6.2347412109375,-1.1920166015625,-89.1925048828125
2021-09-22 20:54:44.985248,0.05224609375,0.13037109375,1.03564453125,6.141357421875,-1.1700439453125,-89.0826416015625
2021-09-22 20:54:44.995132,0.048828125,0.12744140625,1.03955078125,6.0369873046875,-1.153564453125,-88.978271484375
2021-09-22 20:54:45.005065,0.044921875,0.12548828125,1.0390625,5.9271240234375,-1.1370849609375,-88.8848876953125
2021-09-22 20:54:45.014963,0.0458984375,0.12109375,1.0390625,5.8062744140625,-1.131591796875,-88.802490234375
2021-09-22 20:54:45.025071,0.04736328125,0.1171875,1.0390625,5.6854248046875,-1.131591796875,-88.7310791015625
2021-09-22 20:54:45.035126,0.0517578125,0.115234375,1.0390625,5.55908203125,-1.142578125,-88.670654296875
2021-09-22 20:54:45.044978,0.05322265625,0.1123046875,1.04052734375,5.4327392578125,-1.1590576171875,-88.6212158203125
2021-09-22 20:54:45.054834,0.05419921875,0.10791015625,1.04150390625,5.306396484375,-1.1810302734375,-88.5772705078125
2021-09-22 20:54:45.064914,0.05517578125,0.1044921875,1.04541015625,5.174560546875,-1.20849609375,-88.5443115234375
2021-09-22 20:54:45.074859,0.05322265625,0.09521484375,1.044921875,5.0482177734375,-1.2359619140625,-88.516845703125
2021-09-22 20:54:45.084748,0.0537109375,0.087890625,1.0439453125,4.921875,-1.2744140625,-88.494873046875
2021-09-22 20:54:45.094872,0.052734375,0.07958984375,1.041015625,4.7955322265625,-1.3128662109375,-88.4783935546875
2021-09-22 20:54:45.104778,0.048828125,0.072265625,1.037109375,4.68017578125,-1.3623046875,-88.4619140625
2021-09-22 20:54:45.114636,0.03857421875,0.0654296875,1.03564453125,4.5703125,-1.40625,-88.4564208984375
2021-09-22 20:54:45.124781,0.03076171875,0.0576171875,1.0380859375,4.4659423828125,-1.4501953125,-88.450927734375
2021-09-22 20:54:45.134742,0.02978515625,0.056640625,1.0380859375,4.37255859375,-1.494140625,-88.4564208984375
2021-09-22 20:54:45.144565,0.03125,0.05712890625,1.037109375,4.2901611328125,-1.5435791015625,-88.4674072265625
2021-09-22 20:54:45.154582,0.037109375,0.060546875,1.033203125,4.2132568359375,-1.5985107421875,-88.48388671875
2021-09-22 20:54:45.164557,0.04736328125,0.07080078125,1.0244140625,4.1583251953125,-1.658935546875,-88.5113525390625
2021-09-22 20:54:45.174576,0.04931640625,0.0771484375,1.01611328125,4.10888671875,-1.7193603515625,-88.538818359375
2021-09-22 20:54:45.184493,0.05224609375,0.08203125,1.013671875,4.075927734375,-1.7852783203125,-88.57177734375
2021-09-22 20:54:45.195098,0.05029296875,0.08251953125,1.0126953125,4.053955078125,-1.8402099609375,-88.604736328125
2021-09-22 20:54:45.204525,0.0517578125,0.0771484375,1.0087890625,4.031982421875,-1.900634765625,-88.6431884765625
2021-09-22 20:54:45.214491,0.0517578125,0.07861328125,1.00341796875,4.02099609375,-1.9500732421875,-88.681640625
2021-09-22 20:54:45.224339,0.04931640625,0.07958984375,1.00390625,4.0155029296875,-1.99951171875,-88.7255859375
2021-09-22 20:54:45.234259,0.04931640625,0.080078125,1.00048828125,4.010009765625,-2.0379638671875,-88.76953125
2021-09-22 20:54:45.244206,0.04736328125,0.08642578125,1.00146484375,4.0045166015625,-2.0654296875,-88.8189697265625
2021-09-22 20:54:45.254294,0.04638671875,0.08935546875,1.00146484375,3.9990234375,-2.0819091796875,-88.8739013671875
2021-09-22 20:54:45.264194,0.0498046875,0.0849609375,1.00390625,3.9825439453125,-2.0928955078125,-88.934326171875
2021-09-22 20:54:45.274151,0.0537109375,0.08056640625,1.00341796875,3.966064453125,-2.098388671875,-88.9947509765625
2021-09-22 20:54:45.284124,0.05419921875,0.0673828125,1.00634765625,3.93310546875,-2.098388671875,-89.05517578125
2021-09-22 20:54:45.294242,0.05078125,0.05810546875,1.00341796875,3.8946533203125,-2.08740234375,-89.12109375
2021-09-22 20:54:45.304068,0.044921875,0.0517578125,0.99951171875,3.856201171875,-2.0599365234375,-89.18701171875
2021-09-22 20:54:45.314069,0.0400390625,0.05078125,0.99609375,3.8232421875,-2.0269775390625,-89.2584228515625
2021-09-22 20:54:45.323929,0.03466796875,0.04931640625,0.99560546875,3.790283203125,-1.988525390625,-89.329833984375
2021-09-22 20:54:45.334093,0.02783203125,0.04345703125,0.9970703125,3.768310546875,-1.9390869140625,-89.40673828125
2021-09-22 20:54:45.343905,0.0244140625,0.0361328125,0.99462890625,3.746337890625,-1.8841552734375,-89.4891357421875
2021-09-22 20:54:45.353855,0.0234375,0.0361328125,1.0,3.7298583984375,-1.8292236328125,-89.571533203125
2021-09-22 20:54:45.363764,0.01904296875,0.03466796875,1.00048828125,3.724365234375,-1.768798828125,-89.659423828125
2021-09-22 20:54:45.373837,0.01611328125,0.0361328125,1.00048828125,3.724365234375,-1.702880859375,-89.747314453125
2021-09-22 20:54:45.383887,0.0126953125,0.04052734375,1.0048828125,3.724365234375,-1.636962890625,-89.8406982421875
2021-09-22 20:54:45.393791,0.0078125,0.0458984375,1.0068359375,3.724365234375,-1.5655517578125,-89.9395751953125
2021-09-22 20:54:45.403872,0.0078125,0.0498046875,1.00341796875,3.7298583984375,-1.494140625,-90.032958984375
2021-09-22 20:54:45.413756,0.00390625,0.0517578125,1.00341796875,3.7298583984375,-1.4227294921875,-90.1318359375
2021-09-22 20:54:45.423625,-0.0009765625,0.05517578125,1.0029296875,3.724365234375,-1.351318359375,-90.230712890625
2021-09-22 20:54:45.433716,-0.00732421875,0.05712890625,1.00146484375,3.724365234375,-1.2744140625,-90.32958984375
2021-09-22 20:54:45.443639,-0.0146484375,0.0625,0.99951171875,3.7298583984375,-1.197509765625,-90.4339599609375
2021-09-22 20:54:45.453565,-0.025390625,0.06494140625,0.9990234375,3.7353515625,-1.1151123046875,-90.538330078125
2021-09-22 20:54:45.463529,-0.03125,0.0693359375,1.00390625,3.746337890625,-1.03271484375,-90.648193359375
2021-09-22 20:54:45.473553,-0.0322265625,0.06689453125,1.00634765625,3.75732421875,-0.955810546875,-90.758056640625
2021-09-22 20:54:45.483582,-0.02734375,0.06689453125,1.0126953125,3.7628173828125,-0.87890625,-90.867919921875
2021-09-22 20:54:45.493417,-0.0283203125,0.06103515625,1.01220703125,3.7628173828125,-0.81298828125,-90.9722900390625
2021-09-22 20:54:45.503348,-0.02880859375,0.056640625,1.01708984375,3.75732421875,-0.7470703125,-91.0711669921875
2021-09-22 20:54:45.513292,-0.02978515625,0.0615234375,1.0166015625,3.7518310546875,-0.6866455078125,-91.16455078125
2021-09-22 20:54:45.523410,-0.02880859375,0.0615234375,1.01220703125,3.7408447265625,-0.6317138671875,-91.2469482421875
2021-09-22 20:54:45.533317,-0.02685546875,0.0625,1.0048828125,3.7353515625,-0.59326171875,-91.3128662109375
2021-09-22 20:54:45.543192,-0.02294921875,0.064453125,1.0029296875,3.7353515625,-0.560302734375,-91.3677978515625
2021-09-22 20:54:45.553289,-0.015625,0.0693359375,0.99560546875,3.746337890625,-0.5438232421875,-91.40625
2021-09-22 20:54:45.563174,-0.0107421875,0.07421875,0.9892578125,3.779296875,-0.538330078125,-91.42822265625
2021-09-22 20:54:45.573215,-0.01220703125,0.07421875,0.9814453125,3.8287353515625,-0.54931640625,-91.4447021484375
2021-09-22 20:54:45.583106,-0.01025390625,0.072265625,0.97412109375,3.8946533203125,-0.5657958984375,-91.439208984375
2021-09-22 20:54:45.593180,-0.01171875,0.0673828125,0.97021484375,3.97705078125,-0.59326171875,-91.42822265625
2021-09-22 20:54:45.603099,-0.01416015625,0.0634765625,0.9755859375,4.0704345703125,-0.626220703125,-91.4117431640625
2021-09-22 20:54:45.613056,-0.01123046875,0.05322265625,0.982421875,4.15283203125,-0.670166015625,-91.38427734375
2021-09-22 20:54:45.622910,-0.00732421875,0.0498046875,0.9892578125,4.2242431640625,-0.714111328125,-91.351318359375
2021-09-22 20:54:45.632998,-0.001953125,0.05078125,0.99169921875,4.2791748046875,-0.7635498046875,-91.307373046875
2021-09-22 20:54:45.643032,0.00341796875,0.0439453125,0.99462890625,4.295654296875,-0.81298828125,-91.25244140625
2021-09-22 20:54:45.652909,0.00830078125,0.0419921875,0.98828125,4.28466796875,-0.8624267578125,-91.1920166015625
2021-09-22 20:54:45.662831,0.01123046875,0.04150390625,0.9853515625,4.251708984375,-0.9063720703125,-91.1151123046875
2021-09-22 20:54:45.672754,0.01513671875,0.03955078125,0.98193359375,4.1912841796875,-0.9503173828125,-91.0382080078125
2021-09-22 20:54:45.682842,0.02294921875,0.041015625,0.97802734375,4.1143798828125,-0.999755859375,-90.9503173828125
2021-09-22 20:54:45.693258,0.02490234375,0.03955078125,0.9794921875,4.0155029296875,-1.0491943359375,-90.8624267578125
2021-09-22 20:54:45.702622,0.02734375,0.04248046875,0.984375,3.9111328125,-1.0931396484375,-90.7635498046875
2021-09-22 20:54:45.712513,0.03076171875,0.0419921875,0.986328125,3.790283203125,-1.1370849609375,-90.670166015625
2021-09-22 20:54:45.722639,0.02880859375,0.0439453125,0.98388671875,3.6639404296875,-1.1810302734375,-90.5712890625
2021-09-22 20:54:45.732643,0.02734375,0.044921875,0.98291015625,3.5321044921875,-1.2249755859375,-90.4779052734375
2021-09-22 20:54:45.742540,0.02880859375,0.05078125,0.97998046875,3.4112548828125,-1.263427734375,-90.3900146484375
2021-09-22 20:54:45.752496,0.02978515625,0.052734375,0.98779296875,3.306884765625,-1.307373046875,-90.3076171875
2021-09-22 20:54:45.762420,0.02734375,0.04931640625,0.9912109375,3.2025146484375,-1.351318359375,-90.24169921875
2021-09-22 20:54:45.772500,0.02880859375,0.0478515625,0.99365234375,3.1146240234375,-1.395263671875,-90.1812744140625
2021-09-22 20:54:45.782394,0.0302734375,0.04248046875,1.00048828125,3.0322265625,-1.4447021484375,-90.1318359375
2021-09-22 20:54:45.792251,0.03466796875,0.0390625,1.01513671875,2.9498291015625,-1.4886474609375,-90.098876953125
2021-09-22 20:54:45.802542,0.03515625,0.033203125,1.02099609375,2.8619384765625,-1.5325927734375,-90.0714111328125
2021-09-22 20:54:45.812467,0.0341796875,0.02880859375,1.0263671875,2.7630615234375,-1.5655517578125,-90.054931640625
2021-09-22 20:54:45.822193,0.03466796875,0.029296875,1.02783203125,2.669677734375,-1.5985107421875,-90.0439453125
2021-09-22 20:54:45.832328,0.0361328125,0.029296875,1.029296875,2.5653076171875,-1.6204833984375,-90.0439453125
2021-09-22 20:54:45.842223,0.037109375,0.02978515625,1.02734375,2.4664306640625,-1.6314697265625,-90.054931640625
2021-09-22 20:54:45.852165,0.04052734375,0.03173828125,1.02392578125,2.3675537109375,-1.636962890625,-90.0714111328125
2021-09-22 20:54:45.862069,0.04833984375,0.03564453125,1.02197265625,2.28515625,-1.636962890625,-90.0933837890625
2021-09-22 20:54:45.872198,0.05078125,0.03857421875,1.02392578125,2.2137451171875,-1.636962890625,-90.120849609375
2021-09-22 20:54:45.882045,0.04736328125,0.03955078125,1.0224609375,2.1588134765625,-1.6259765625,-90.1593017578125
2021-09-22 20:54:45.892068,0.04248046875,0.03662109375,1.017578125,2.1258544921875,-1.60400390625,-90.19775390625
2021-09-22 20:54:45.901987,0.0400390625,0.03759765625,1.013671875,2.109375,-1.5765380859375,-90.24169921875
2021-09-22 20:54:45.912120,0.03662109375,0.03515625,1.013671875,2.1148681640625,-1.5380859375,-90.296630859375
2021-09-22 20:54:45.921970,0.0419921875,0.03125,1.01123046875,2.1368408203125,-1.4996337890625,-90.3570556640625
2021-09-22 20:54:45.931854,0.04736328125,0.03564453125,1.01416015625,2.1697998046875,-1.4556884765625,-90.41748046875
2021-09-22 20:54:45.941754,0.04931640625,0.0400390625,1.0107421875,2.21923828125,-1.40625,-90.4833984375
2021-09-22 20:54:45.951804,0.0498046875,0.0400390625,1.01025390625,2.2686767578125,-1.351318359375,-90.5548095703125
2021-09-22 20:54:45.961765,0.046875,0.04541015625,1.0078125,2.3236083984375,-1.2908935546875,-90.6207275390625
2021-09-22 20:54:45.971678,0.04248046875,0.0478515625,1.0009765625,2.384033203125,-1.219482421875,-90.692138671875
2021-09-22 20:54:45.981542,0.037109375,0.05322265625,0.99951171875,2.449951171875,-1.142578125,-90.758056640625
2021-09-22 20:54:45.991822,0.029296875,0.05615234375,0.99755859375,2.5213623046875,-1.0601806640625,-90.8294677734375
2021-09-22 20:54:46.001691,0.02294921875,0.05810546875,0.99853515625,2.5927734375,-0.9613037109375,-90.90087890625
2021-09-22 20:54:46.011655,0.01904296875,0.05615234375,0.9970703125,2.6531982421875,-0.8624267578125,-90.977783203125
2021-09-22 20:54:46.021486,0.01513671875,0.05419921875,1.00048828125,2.7081298828125,-0.7525634765625,-91.0601806640625
2021-09-22 20:54:46.031537,0.0068359375,0.0546875,0.99951171875,2.7520751953125,-0.63720703125,-91.142578125
2021-09-22 20:54:46.041515,0.00341796875,0.05712890625,0.99560546875,2.79052734375,-0.516357421875,-91.2249755859375
2021-09-22 20:54:46.051376,0.0009765625,0.056640625,0.99365234375,2.8179931640625,-0.384521484375,-91.3128662109375
2021-09-22 20:54:46.061402,-0.00048828125,0.05712890625,0.99658203125,2.8399658203125,-0.2581787109375,-91.4007568359375
2021-09-22 20:54:46.071544,-0.00341796875,0.0556640625,1.0009765625,2.8619384765625,-0.1263427734375,-91.4886474609375
2021-09-22 20:54:46.081359,-0.0009765625,0.04736328125,1.00537109375,2.8729248046875,0.0,-91.571044921875
2021-09-22 20:54:46.091406,-0.0009765625,0.04931640625,1.009765625,2.87841796875,0.120849609375,-91.6534423828125
2021-09-22 20:54:46.101016,-0.00439453125,0.05322265625,1.0068359375,2.8839111328125,0.24169921875,-91.724853515625
2021-09-22 20:54:46.111315,-0.00927734375,0.05419921875,1.01025390625,2.8948974609375,0.362548828125,-91.7962646484375
2021-09-22 20:54:46.121372,-0.01708984375,0.05224609375,1.00927734375,2.911376953125,0.4779052734375,-91.856689453125
2021-09-22 20:54:46.131353,-0.02001953125,0.05419921875,1.01416015625,2.933349609375,0.582275390625,-91.9171142578125
2021-09-22 20:54:46.141225,-0.02099609375,0.0537109375,1.0126953125,2.9608154296875,0.68115234375,-91.966552734375
2021-09-22 20:54:46.151132,-0.02001953125,0.0537109375,1.01611328125,2.9937744140625,0.76904296875,-92.0159912109375
2021-09-22 20:54:46.161143,-0.0224609375,0.05517578125,1.017578125,3.0322265625,0.8404541015625,-92.0599365234375
2021-09-22 20:54:46.171153,-0.02392578125,0.05517578125,1.0185546875,3.0816650390625,0.911865234375,-92.098388671875
2021-09-22 20:54:46.181091,-0.02490234375,0.05224609375,1.017578125,3.1256103515625,0.966796875,-92.1368408203125
2021-09-22 20:54:46.191662,-0.02392578125,0.056640625,1.0185546875,3.1805419921875,1.0162353515625,-92.1697998046875
2021-09-22 20:54:46.200835,-0.017578125,0.0634765625,1.01806640625,3.2354736328125,1.0546875,-92.197265625
2021-09-22 20:54:46.210949,-0.01123046875,0.068359375,1.015625,3.2904052734375,1.0711669921875,-92.21923828125
2021-09-22 20:54:46.220854,-0.01025390625,0.072265625,1.01123046875,3.3343505859375,1.0821533203125,-92.2357177734375
2021-09-22 20:54:46.230994,-0.01513671875,0.078125,1.00634765625,3.3782958984375,1.087646484375,-92.2467041015625
2021-09-22 20:54:46.241059,-0.021484375,0.07861328125,1.001953125,3.4112548828125,1.087646484375,-92.2576904296875
2021-09-22 20:54:46.250906,-0.0244140625,0.08203125,0.9951171875,3.4442138671875,1.0821533203125,-92.2686767578125
2021-09-22 20:54:46.260767,-0.02685546875,0.08447265625,0.99169921875,3.4661865234375,1.065673828125,-92.2796630859375
2021-09-22 20:54:46.270669,-0.02392578125,0.08642578125,0.990234375,3.4881591796875,1.0382080078125,-92.2906494140625
2021-09-22 20:54:46.280572,-0.0205078125,0.0888671875,0.98388671875,3.5101318359375,1.0052490234375,-92.3016357421875
2021-09-22 20:54:46.290646,-0.0185546875,0.0888671875,0.9794921875,3.526611328125,0.9613037109375,-92.318115234375
2021-09-22 20:54:46.300627,-0.02099609375,0.08935546875,0.98095703125,3.5430908203125,0.911865234375,-92.3345947265625
2021-09-22 20:54:46.310506,-0.0244140625,0.083984375,0.98583984375,3.5540771484375,0.8624267578125,-92.35107421875
2021-09-22 20:54:46.320660,-0.02880859375,0.076171875,0.990234375,3.5540771484375,0.8074951171875,-92.362060546875
2021-09-22 20:54:46.330580,-0.02685546875,0.06591796875,0.99951171875,3.53759765625,0.7470703125,-92.3785400390625
2021-09-22 20:54:46.340481,-0.0234375,0.0595703125,0.99951171875,3.5101318359375,0.6866455078125,-92.3895263671875
2021-09-22 20:54:46.350563,-0.01513671875,0.06005859375,1.0,3.4661865234375,0.615234375,-92.4005126953125
2021-09-22 20:54:46.360513,-0.0107421875,0.05908203125,0.99951171875,3.4112548828125,0.5438232421875,-92.406005859375
2021-09-22 20:54:46.370447,-0.00634765625,0.06298828125,0.99609375,3.350830078125,0.4669189453125,-92.406005859375
2021-09-22 20:54:46.380281,-0.00341796875,0.06201171875,0.9970703125,3.284912109375,0.384521484375,-92.4005126953125
2021-09-22 20:54:46.390365,-0.00244140625,0.06103515625,0.99365234375,3.2135009765625,0.3021240234375,-92.3895263671875
2021-09-22 20:54:46.400283,-0.00439453125,0.05419921875,0.9931640625,3.14208984375,0.2197265625,-92.373046875
2021-09-22 20:54:46.410280,-0.00732421875,0.04296875,0.99658203125,3.065185546875,0.1373291015625,-92.35107421875
2021-09-22 20:54:46.420201,-0.00341796875,0.03369140625,1.00341796875,2.98828125,0.0494384765625,-92.3236083984375
2021-09-22 20:54:46.430249,-0.00146484375,0.02978515625,1.005859375,2.911376953125,-0.032958984375,-92.296142578125
2021-09-22 20:54:46.440167,0.00146484375,0.029296875,1.0048828125,2.8399658203125,-0.120849609375,-92.26318359375
2021-09-22 20:54:46.450092,0.005859375,0.03369140625,1.00634765625,2.7740478515625,-0.208740234375,-92.2247314453125
2021-09-22 20:54:46.460149,0.00927734375,0.03369140625,1.0068359375,2.713623046875,-0.296630859375,-92.1807861328125
2021-09-22 20:54:46.470091,0.01171875,0.03271484375,1.00244140625,2.65869140625,-0.3790283203125,-92.1368408203125
2021-09-22 20:54:46.480018,0.01123046875,0.029296875,1.001953125,2.6092529296875,-0.4559326171875,-92.08740234375
2021-09-22 20:54:46.489983,0.00927734375,0.02880859375,1.00048828125,2.5653076171875,-0.52734375,-92.032470703125
2021-09-22 20:54:46.500077,0.01171875,0.029296875,1.001953125,2.52685546875,-0.5877685546875,-91.9830322265625
2021-09-22 20:54:46.510014,0.01611328125,0.03271484375,1.001953125,2.4993896484375,-0.648193359375,-91.93359375
2021-09-22 20:54:46.519853,0.02294921875,0.03564453125,1.0009765625,2.471923828125,-0.703125,-91.8841552734375
2021-09-22 20:54:46.529761,0.025390625,0.0322265625,1.0009765625,2.4444580078125,-0.7470703125,-91.834716796875
2021-09-22 20:54:46.539837,0.02587890625,0.0322265625,1.00244140625,2.4169921875,-0.7855224609375,-91.7852783203125
2021-09-22 20:54:46.549750,0.02734375,0.02734375,1.00537109375,2.384033203125,-0.823974609375,-91.7413330078125
2021-09-22 20:54:46.559660,0.02392578125,0.02294921875,1.0087890625,2.340087890625,-0.845947265625,-91.69189453125
2021-09-22 20:54:46.569748,0.02490234375,0.02490234375,1.005859375,2.296142578125,-0.867919921875,-91.64794921875
2021-09-22 20:54:46.579709,0.02490234375,0.02587890625,1.001953125,2.252197265625,-0.8843994140625,-91.60400390625
2021-09-22 20:54:46.589681,0.0234375,0.0283203125,1.00048828125,2.208251953125,-0.8953857421875,-91.56005859375
2021-09-22 20:54:46.599571,0.02197265625,0.02685546875,0.99951171875,2.1697998046875,-0.90087890625,-91.5216064453125
2021-09-22 20:54:46.609484,0.01904296875,0.0224609375,1.00048828125,2.1258544921875,-0.90087890625,-91.4886474609375
2021-09-22 20:54:46.619558,0.021484375,0.01806640625,1.00830078125,2.0928955078125,-0.90087890625,-91.461181640625
2021-09-22 20:54:46.629400,0.01904296875,0.0146484375,1.01123046875,2.054443359375,-0.8953857421875,-91.4337158203125
2021-09-22 20:54:46.639550,0.01953125,0.01025390625,1.0146484375,2.021484375,-0.8953857421875,-91.4117431640625
2021-09-22 20:54:46.649449,0.01953125,0.00537109375,1.02001953125,1.9830322265625,-0.889892578125,-91.395263671875
2021-09-22 20:54:46.659296,0.017578125,0.00830078125,1.01953125,1.9500732421875,-0.87890625,-91.3787841796875
2021-09-22 20:54:46.669293,0.01806640625,0.00830078125,1.02099609375,1.9171142578125,-0.867919921875,-91.3623046875
2021-09-22 20:54:46.679554,0.0244140625,0.009765625,1.0380859375,1.8841552734375,-0.85693359375,-91.3568115234375
2021-09-22 20:54:46.689850,0.25634765625,0.04931640625,1.220703125,1.856689453125,-0.94482421875,-91.351318359375
2021-09-22 20:54:46.699183,-0.22314453125,-0.05126953125,0.7451171875,1.812744140625,-0.8514404296875,-91.3623046875
2021-09-22 20:54:46.709330,-0.36767578125,0.00830078125,0.9736328125,1.878662109375,-0.670166015625,-91.395263671875
2021-09-22 20:54:46.719219,0.0498046875,0.1650390625,1.1318359375,1.966552734375,-0.5657958984375,-91.4337158203125
2021-09-22 20:54:46.729220,0.0908203125,-0.06396484375,1.107421875,2.04345703125,-0.4833984375,-91.4227294921875
2021-09-22 20:54:46.739055,0.06005859375,-0.0654296875,0.73193359375,2.1368408203125,-0.428466796875,-91.395263671875
2021-09-22 20:54:46.748916,0.20263671875,-0.0654296875,0.984375,2.2027587890625,-0.3680419921875,-91.329345703125
2021-09-22 20:54:46.759182,0.24658203125,0.0673828125,1.09619140625,2.2137451171875,-0.3570556640625,-91.131591796875
2021-09-22 20:54:46.769033,0.01318359375,0.05029296875,0.88037109375,2.1533203125,-0.3570556640625,-90.8184814453125
2021-09-22 20:54:46.779581,-0.01611328125,0.1318359375,0.96435546875,2.0928955078125,-0.3900146484375,-90.516357421875
2021-09-22 20:54:46.789383,-0.0205078125,0.07080078125,1.0068359375,2.021484375,-0.4669189453125,-90.3240966796875
2021-09-22 20:54:46.799329,-0.05908203125,0.04541015625,1.12890625,1.93359375,-0.5328369140625,-90.263671875
2021-09-22 20:54:46.809350,-0.03857421875,0.15869140625,0.89208984375,1.8731689453125,-0.5657958984375,-90.3240966796875
2021-09-22 20:54:46.819179,-0.0703125,0.17431640625,0.931640625,1.812744140625,-0.516357421875,-90.4998779296875
2021-09-22 20:54:46.829062,-0.0595703125,0.0927734375,0.88916015625,1.7523193359375,-0.4339599609375,-90.76904296875
2021-09-22 20:54:46.839293,0.177734375,0.10400390625,1.140625,1.69189453125,-0.3900146484375,-91.1260986328125
2021-09-22 20:54:46.849212,0.09521484375,0.03076171875,1.20458984375,1.7633056640625,-0.32958984375,-91.5435791015625
2021-09-22 20:54:46.859068,0.01171875,-0.03955078125,0.96630859375,1.9720458984375,-0.3955078125,-91.988525390625
2021-09-22 20:54:46.869118,-0.03515625,0.07275390625,1.00146484375,2.17529296875,-0.406494140625,-92.4554443359375
2021-09-22 20:54:46.879562,-0.00341796875,-0.0498046875,0.896484375,2.3126220703125,-0.3955078125,-92.8729248046875
2021-09-22 20:54:46.889042,0.09130859375,0.0537109375,0.87255859375,2.39501953125,-0.4669189453125,-93.18603515625
2021-09-22 20:54:46.898774,0.03857421875,-0.05859375,1.166015625,2.4554443359375,-0.4833984375,-93.482666015625
2021-09-22 20:54:46.908937,0.046875,0.01904296875,1.11376953125,2.5433349609375,-0.5548095703125,-93.790283203125
2021-09-22 20:54:46.918888,0.0361328125,0.0234375,0.88818359375,2.6531982421875,-0.5877685546875,-94.1033935546875
2021-09-22 20:54:46.928745,-0.01611328125,0.0146484375,1.021484375,2.7410888671875,-0.54931640625,-94.361572265625
2021-09-22 20:54:46.938883,-0.00341796875,0.02587890625,1.11181640625,2.8729248046875,-0.4833984375,-94.537353515625
2021-09-22 20:54:46.948831,0.046875,0.05908203125,1.02294921875,3.0047607421875,-0.4010009765625,-94.669189453125
2021-09-22 20:54:46.958676,0.083984375,0.00390625,0.95703125,3.065185546875,-0.3076171875,-94.7406005859375
2021-09-22 20:54:46.968518,0.0478515625,0.1904296875,1.1630859375,3.087158203125,-0.230712890625,-94.7186279296875
2021-09-22 20:54:46.978783,-0.0078125,0.11767578125,0.96923828125,3.076171875,-0.2032470703125,-94.5758056640625
2021-09-22 20:54:46.988660,0.005859375,0.13232421875,0.96923828125,3.065185546875,-0.1318359375,-94.3505859375
2021-09-22 20:54:46.998840,-0.015625,0.12158203125,1.04345703125,3.076171875,-0.0384521484375,-94.06494140625
2021-09-22 20:54:47.008859,0.00634765625,0.125,1.16455078125,3.1201171875,0.010986328125,-93.702392578125
2021-09-22 20:54:47.018774,0.05615234375,0.16943359375,0.9560546875,3.2244873046875,0.0494384765625,-93.218994140625
2021-09-22 20:54:47.028163,0.00732421875,0.10009765625,0.99365234375,3.2958984375,0.0714111328125,-92.6531982421875
2021-09-22 20:54:47.038683,0.0078125,0.115234375,0.99462890625,3.3892822265625,0.0494384765625,-92.109375
2021-09-22 20:54:47.048654,-0.03369140625,0.1259765625,0.9521484375,3.49365234375,0.0439453125,-91.658935546875
2021-09-22 20:54:47.058496,-0.05224609375,0.0859375,0.88720703125,3.6090087890625,0.054931640625,-91.3128662109375
2021-09-22 20:54:47.068408,-0.03271484375,0.1103515625,1.0126953125,3.6968994140625,0.0494384765625,-91.0272216796875
2021-09-22 20:54:47.078464,0.02978515625,0.09033203125,0.78076171875,3.7738037109375,0.0,-90.7525634765625
2021-09-22 20:54:47.088238,-0.046875,0.0908203125,0.9443359375,3.768310546875,-0.010986328125,-90.4779052734375
2021-09-22 20:54:47.098078,-0.02978515625,0.0537109375,1.0703125,3.779296875,-0.0604248046875,-90.2142333984375
2021-09-22 20:54:47.107865,-0.0126953125,0.10107421875,1.05615234375,3.7957763671875,-0.15380859375,-90.010986328125
2021-09-22 20:54:47.118231,-0.0380859375,0.06103515625,1.00439453125,3.8067626953125,-0.230712890625,-89.8681640625
2021-09-22 20:54:47.128276,-0.00732421875,0.05224609375,0.9951171875,3.779296875,-0.3076171875,-89.8297119140625
2021-09-22 20:54:47.138144,0.04345703125,0.06787109375,1.0283203125,3.7078857421875,-0.3955078125,-89.9066162109375
2021-09-22 20:54:47.148013,0.078125,0.06640625,1.00439453125,3.603515625,-0.4998779296875,-90.098876953125
2021-09-22 20:54:47.158221,0.048828125,0.14794921875,0.98095703125,3.5321044921875,-0.5877685546875,-90.4119873046875
2021-09-22 20:54:47.168115,-0.04833984375,0.0205078125,1.29345703125,3.526611328125,-0.648193359375,-90.8074951171875
2021-09-22 20:54:47.178090,0.01513671875,0.025390625,0.9140625,3.5760498046875,-0.8294677734375,-91.3128662109375
2021-09-22 20:54:47.188348,0.14501953125,0.04296875,1.12451171875,3.5650634765625,-0.94482421875,-91.9390869140625
2021-09-22 20:54:47.197796,0.1328125,0.072265625,0.83837890625,3.5540771484375,-1.0382080078125,-92.6202392578125
2021-09-22 20:54:47.207726,0.02490234375,0.03515625,0.89306640625,3.603515625,-1.0711669921875,-93.328857421875
2021-09-22 20:54:47.217634,-0.02978515625,0.0087890625,0.97998046875,3.702392578125,-1.1041259765625,-94.010009765625
2021-09-22 20:54:47.227719,0.0263671875,0.11962890625,0.91650390625,3.8232421875,-1.1260986328125,-94.603271484375
2021-09-22 20:54:47.237582,0.10546875,0.0771484375,0.93115234375,3.9166259765625,-1.16455078125,-95.07568359375
2021-09-22 20:54:47.247474,0.09033203125,0.0087890625,1.03271484375,3.988037109375,-1.20849609375,-95.4766845703125
2021-09-22 20:54:47.257361,0.0517578125,-0.0087890625,0.94091796875,4.0869140625,-1.2359619140625,-95.855712890625
2021-09-22 20:54:47.267374,0.0244140625,0.01904296875,0.8740234375,4.1583251953125,-1.2469482421875,-96.2347412109375
2021-09-22 20:54:47.277459,-0.04248046875,0.0283203125,0.9609375,4.2352294921875,-1.153564453125,-96.558837890625
2021-09-22 20:54:47.287309,-0.015625,0.03369140625,1.04296875,4.3450927734375,-1.0107421875,-96.78955078125
2021-09-22 20:54:47.297435,0.0390625,0.0498046875,1.04248046875,4.482421875,-0.85693359375,-96.943359375
2021-09-22 20:54:47.307388,0.029296875,-0.033203125,0.78466796875,4.5758056640625,-0.670166015625,-97.0257568359375
2021-09-22 20:54:47.317325,0.00830078125,0.18017578125,1.21337890625,4.6527099609375,-0.516357421875,-97.020263671875
2021-09-22 20:54:47.327244,-0.04248046875,0.12451171875,0.96435546875,4.7076416015625,-0.41748046875,-96.8829345703125
2021-09-22 20:54:47.337149,-0.04296875,0.1357421875,0.87158203125,4.7845458984375,-0.252685546875,-96.65771484375
2021-09-22 20:54:47.347388,-0.08203125,0.12060546875,0.92236328125,4.8724365234375,-0.0494384765625,-96.3720703125
2021-09-22 20:54:47.357520,-0.02783203125,0.07421875,1.228515625,5.0262451171875,0.087890625,-96.009521484375
2021-09-22 20:54:47.367571,-0.02783203125,0.07421875,1.228515625,5.174560546875,0.2252197265625,-95.6524658203125
2021-09-22 20:54:47.377466,0.02099609375,0.17626953125,0.8310546875,5.4107666015625,0.340576171875,-95.174560546875
2021-09-22 20:54:47.387264,-0.029296875,0.09765625,0.95361328125,5.6085205078125,0.428466796875,-94.6197509765625
2021-09-22 20:54:47.397181,-0.041015625,0.1259765625,0.904296875,5.8062744140625,0.494384765625,-94.0704345703125
2021-09-22 20:54:47.407125,-0.05810546875,0.13427734375,0.9130859375,6.009521484375,0.5712890625,-93.603515625
2021-09-22 20:54:47.417202,-0.0859375,0.07763671875,0.8212890625,6.207275390625,0.6756591796875,-93.2244873046875
2021-09-22 20:54:47.427117,-0.0771484375,0.08935546875,0.94482421875,6.3720703125,0.780029296875,-92.8948974609375
2021-09-22 20:54:47.436960,-0.0166015625,0.09326171875,0.74951171875,6.50390625,0.8349609375,-92.5762939453125
2021-09-22 20:54:47.447168,-0.06787109375,0.10009765625,0.884765625,6.5533447265625,0.911865234375,-92.252197265625
2021-09-22 20:54:47.457035,-0.04931640625,0.06982421875,1.029296875,6.591796875,0.94482421875,-91.9390869140625
2021-09-22 20:54:47.466955,-0.0439453125,0.11279296875,0.9765625,6.6357421875,0.9503173828125,-91.669921875
2021-09-22 20:54:47.476945,-0.0615234375,0.1083984375,0.9794921875,6.6632080078125,0.9722900390625,-91.461181640625
2021-09-22 20:54:47.486784,-0.0458984375,0.0849609375,0.953125,6.624755859375,0.9942626953125,-91.3348388671875
2021-09-22 20:54:47.496627,0.00146484375,0.07861328125,0.9814453125,6.5313720703125,1.0107421875,-91.329345703125
2021-09-22 20:54:47.506664,0.04345703125,0.0966796875,0.97607421875,6.3665771484375,0.999755859375,-91.439208984375
2021-09-22 20:54:47.516457,0.03466796875,0.17431640625,0.94873046875,6.2127685546875,0.999755859375,-91.6754150390625
2021-09-22 20:54:47.526551,-0.08837890625,0.04541015625,1.29248046875,6.0699462890625,1.0491943359375,-91.9940185546875
2021-09-22 20:54:47.536489,-0.03662109375,0.03271484375,0.93701171875,5.9710693359375,0.9942626953125,-92.4224853515625
2021-09-22 20:54:47.546548,0.08935546875,0.04931640625,1.1015625,5.767822265625,0.9832763671875,-92.9608154296875
2021-09-22 20:54:47.556574,0.07373046875,0.06298828125,0.861328125,5.5316162109375,1.0162353515625,-93.570556640625
2021-09-22 20:54:47.566326,-0.029296875,0.03662109375,0.89697265625,5.33935546875,1.0931396484375,-94.2022705078125
2021-09-22 20:54:47.576306,-0.10546875,-0.00439453125,0.98828125,5.196533203125,1.175537109375,-94.8175048828125
2021-09-22 20:54:47.586440,-0.03125,0.11279296875,0.94775390625,5.086669921875,1.2469482421875,-95.3448486328125
2021-09-22 20:54:47.596303,0.07275390625,0.06640625,0.93603515625,4.9603271484375,1.2799072265625,-95.7568359375
2021-09-22 20:54:47.606342,0.0693359375,-0.01123046875,1.05615234375,4.833984375,1.285400390625,-96.0919189453125
2021-09-22 20:54:47.616146,0.0224609375,-0.025390625,0.92333984375,4.757080078125,1.285400390625,-96.3995361328125
2021-09-22 20:54:47.626289,-0.0048828125,0.0185546875,0.88330078125,4.7021484375,1.285400390625,-96.712646484375
2021-09-22 20:54:47.636207,-0.07275390625,0.01708984375,0.96484375,4.6856689453125,1.3677978515625,-96.9708251953125
2021-09-22 20:54:47.646084,-0.05078125,0.009765625,1.087890625,4.72412109375,1.483154296875,-97.130126953125
2021-09-22 20:54:47.656209,0.03369140625,0.01318359375,1.1181640625,4.8065185546875,1.5875244140625,-97.20703125
2021-09-22 20:54:47.666041,0.03076171875,-0.060546875,0.8564453125,4.8504638671875,1.6973876953125,-97.2125244140625
2021-09-22 20:54:47.676109,-0.005859375,0.1513671875,1.2548828125,4.8834228515625,1.77978515625,-97.1246337890625
2021-09-22 20:54:47.686733,-0.06005859375,0.10205078125,1.06005859375,4.8779296875,1.8072509765625,-96.888427734375
2021-09-22 20:54:47.696024,-0.044921875,0.1376953125,0.9345703125,4.9163818359375,1.878662109375,-96.5533447265625
2021-09-22 20:54:47.705968,-0.0693359375,0.13623046875,0.96923828125,4.9603271484375,1.966552734375,-96.1578369140625
2021-09-22 20:54:47.715838,-0.02197265625,0.09228515625,1.27099609375,5.07568359375,1.988525390625,-95.69091796875
2021-09-22 20:54:47.725837,0.03173828125,0.2001953125,0.88818359375,5.3009033203125,1.9720458984375,-95.1031494140625
2021-09-22 20:54:47.735744,-0.017578125,0.12548828125,0.9697265625,5.504150390625,1.91162109375,-94.4329833984375
2021-09-22 20:54:47.745837,-0.0302734375,0.1591796875,0.95703125,5.7293701171875,1.812744140625,-93.7628173828125
2021-09-22 20:54:47.755792,-0.0771484375,0.16845703125,0.9677734375,5.9710693359375,1.7193603515625,-93.1805419921875
2021-09-22 20:54:47.765681,-0.08154296875,0.1162109375,0.90771484375,6.2127685546875,1.6314697265625,-92.70263671875
2021-09-22 20:54:47.775501,-0.0439453125,0.16162109375,1.02001953125,6.4215087890625,1.5380859375,-92.274169921875
2021-09-22 20:54:47.785669,-0.02783203125,0.11767578125,0.77392578125,6.591796875,1.4007568359375,-91.8621826171875
2021-09-22 20:54:47.795574,-0.083984375,0.14453125,0.97607421875,6.668701171875,1.285400390625,-91.461181640625
2021-09-22 20:54:47.805487,-0.0595703125,0.1220703125,1.08251953125,6.7401123046875,1.1370849609375,-91.0821533203125
2021-09-22 20:54:47.815580,-0.05126953125,0.16845703125,1.08056640625,6.800537109375,0.966796875,-90.758056640625
2021-09-22 20:54:47.825639,-0.0712890625,0.15234375,1.0322265625,6.8280029296875,0.823974609375,-90.494384765625
2021-09-22 20:54:47.835542,-0.033203125,0.1357421875,1.0166015625,6.78955078125,0.6866455078125,-90.3131103515625
2021-09-22 20:54:47.845716,0.0087890625,0.130859375,1.0419921875,6.6741943359375,0.5548095703125,-90.2581787109375
2021-09-22 20:54:47.855435,0.037109375,0.13720703125,1.0458984375,6.492919921875,0.41748046875,-90.3240966796875
2021-09-22 20:54:47.865366,0.04052734375,0.21142578125,1.048828125,6.3116455078125,0.3076171875,-90.4998779296875
2021-09-22 20:54:47.875327,-0.078125,0.1103515625,1.337890625,6.15234375,0.252685546875,-90.758056640625
2021-09-22 20:54:47.885398,-0.04443359375,0.0830078125,1.029296875,6.0589599609375,0.10986328125,-91.12060546875
2021-09-22 20:54:47.895395,0.0869140625,0.09716796875,1.14990234375,5.8831787109375,0.032958984375,-91.593017578125
2021-09-22 20:54:47.905242,0.0810546875,0.0966796875,0.9345703125,5.6689453125,0.010986328125,-92.1148681640625
2021-09-22 20:54:47.915153,-0.01171875,0.0546875,0.9296875,5.504150390625,0.02197265625,-92.6531982421875
2021-09-22 20:54:47.924836,-0.07421875,0.04150390625,1.0400390625,5.4107666015625,0.0439453125,-93.1640625
2021-09-22 20:54:47.935103,-0.02685546875,0.16943359375,0.9931640625,5.361328125,0.0714111328125,-93.5760498046875
2021-09-22 20:54:47.944996,0.0458984375,0.0966796875,0.98388671875,5.2789306640625,0.0933837890625,-93.8671875
2021-09-22 20:54:47.955127,0.06298828125,0.05419921875,1.10302734375,5.2130126953125,0.087890625,-94.075927734375
2021-09-22 20:54:47.965119,0.02978515625,0.0205078125,0.9716796875,5.1910400390625,0.0823974609375,-94.2626953125
2021-09-22 20:54:47.975068,0.00537109375,0.0556640625,0.9267578125,5.1910400390625,0.06591796875,-94.4549560546875
2021-09-22 20:54:47.985231,-0.06298828125,0.06396484375,0.98583984375,5.218505859375,0.142822265625,-94.6087646484375
2021-09-22 20:54:47.995127,-0.05908203125,0.078125,1.1142578125,5.3173828125,0.263671875,-94.6746826171875
2021-09-22 20:54:48.004994,0.02001953125,0.07958984375,1.1162109375,5.47119140625,0.3790283203125,-94.68017578125
2021-09-22 20:54:48.014806,0.017578125,-0.00244140625,0.8505859375,5.625,0.50537109375,-94.6307373046875
2021-09-22 20:54:48.024973,-0.0087890625,0.23486328125,1.25,5.767822265625,0.5877685546875,-94.50439453125
2021-09-22 20:54:48.034917,-0.06640625,0.1552734375,0.99658203125,5.921630859375,0.6097412109375,-94.251708984375
2021-09-22 20:54:48.044785,-0.048828125,0.1826171875,0.94384765625,6.1083984375,0.6756591796875,-93.922119140625
2021-09-22 20:54:48.054670,-0.06298828125,0.15234375,0.97412109375,6.30615234375,0.758056640625,-93.53759765625
2021-09-22 20:54:48.064590,-0.01708984375,0.14208984375,1.2587890625,6.558837890625,0.780029296875,-93.09814453125
2021-09-22 20:54:48.074707,0.03173828125,0.20263671875,0.95654296875,6.888427734375,0.76904296875,-92.5543212890625
2021-09-22 20:54:48.084611,-0.01904296875,0.13623046875,0.9912109375,7.174072265625,0.714111328125,-91.9390869140625
2021-09-22 20:54:48.094552,0.001953125,0.171875,0.96875,7.44873046875,0.604248046875,-91.329345703125
2021-09-22 20:54:48.104611,-0.0263671875,0.18017578125,0.96875,7.6849365234375,0.50537109375,-90.802001953125
2021-09-22 20:54:48.114522,-0.0546875,0.13916015625,0.89111328125,7.9046630859375,0.428466796875,-90.3680419921875
2021-09-22 20:54:48.124497,-0.04052734375,0.18408203125,0.9912109375,8.0859375,0.3460693359375,-89.9945068359375
