time,acc_x,acc_y,acc_z,roll,pitch,yaw
2021-09-28 21:54:43.610028,-0.0361328125,-0.0732421875,0.9609375,-4.2022705078125,2.4884033203125,-78.4368896484375
2021-09-28 21:54:43.615849,-0.037109375,-0.07568359375,0.9599609375,-4.0869140625,2.3345947265625,-78.3544921875
2021-09-28 21:54:43.625243,-0.03564453125,-0.07958984375,0.958984375,-3.9715576171875,2.17529296875,-78.2720947265625
2021-09-28 21:54:43.635194,-0.0361328125,-0.08056640625,0.96630859375,-3.8671875,2.010498046875,-78.189697265625
2021-09-28 21:54:43.645073,-0.0322265625,-0.07958984375,0.970703125,-3.768310546875,1.845703125,-78.11279296875
2021-09-28 21:54:43.654972,-0.02880859375,-0.07568359375,0.97509765625,-3.6749267578125,1.6754150390625,-78.035888671875
2021-09-28 21:54:43.665126,-0.02685546875,-0.07177734375,0.98095703125,-3.592529296875,1.505126953125,-77.9644775390625
2021-09-28 21:54:43.675082,-0.02685546875,-0.06787109375,0.97900390625,-3.526611328125,1.34033203125,-77.8985595703125
2021-09-28 21:54:43.684995,-0.02392578125,-0.06982421875,0.98291015625,-3.4716796875,1.175537109375,-77.8326416015625
2021-09-28 21:54:43.694913,-0.02587890625,-0.080078125,0.9814453125,-3.4442138671875,1.021728515625,-77.7777099609375
2021-09-28 21:54:43.704788,-0.0263671875,-0.0908203125,0.984375,-3.427734375,0.8734130859375,-77.7227783203125
2021-09-28 21:54:43.714748,-0.0283203125,-0.0927734375,0.9873046875,-3.4222412109375,0.736083984375,-77.67333984375
2021-09-28 21:54:43.725041,-0.029296875,-0.0859375,0.9931640625,-3.4222412109375,0.615234375,-77.62939453125
2021-09-28 21:54:43.734841,-0.02685546875,-0.0810546875,0.9990234375,-3.438720703125,0.4998779296875,-77.5909423828125
2021-09-28 21:54:43.744789,-0.02734375,-0.07861328125,1.0009765625,-3.460693359375,0.4010009765625,-77.5634765625
2021-09-28 21:54:43.754629,-0.02197265625,-0.07373046875,0.99462890625,-3.49365234375,0.3076171875,-77.54150390625
2021-09-28 21:54:43.764754,-0.01708984375,-0.06884765625,0.99560546875,-3.5430908203125,0.230712890625,-77.530517578125
2021-09-28 21:54:43.774765,-0.013671875,-0.0673828125,0.99072265625,-3.5980224609375,0.1593017578125,-77.5250244140625
2021-09-28 21:54:43.784625,-0.01220703125,-0.06689453125,0.98876953125,-3.6639404296875,0.10986328125,-77.51953125
2021-09-28 21:54:43.794517,-0.00927734375,-0.0732421875,0.98486328125,-3.7408447265625,0.0714111328125,-77.5250244140625
2021-09-28 21:54:43.804609,-0.00732421875,-0.0830078125,0.98681640625,-3.8177490234375,0.0439453125,-77.5360107421875
2021-09-28 21:54:43.814551,-0.00634765625,-0.0927734375,0.99072265625,-3.8946533203125,0.032958984375,-77.5469970703125
2021-09-28 21:54:43.824440,-0.0009765625,-0.091796875,0.99951171875,-3.955078125,0.0384521484375,-77.5634765625
2021-09-28 21:54:43.834664,0.00048828125,-0.08984375,1.00537109375,-4.010009765625,0.0494384765625,-77.5799560546875
2021-09-28 21:54:43.844529,-0.001953125,-0.0869140625,1.00732421875,-4.0484619140625,0.076904296875,-77.596435546875
2021-09-28 21:54:43.854438,-0.00390625,-0.0830078125,1.01220703125,-4.0814208984375,0.1153564453125,-77.618408203125
2021-09-28 21:54:43.864341,-0.00341796875,-0.0810546875,1.01708984375,-4.1033935546875,0.1593017578125,-77.6458740234375
2021-09-28 21:54:43.874257,0.0029296875,-0.07470703125,1.015625,-4.10888671875,0.208740234375,-77.67333984375
2021-09-28 21:54:43.884216,0.00634765625,-0.0732421875,1.02099609375,-4.10888671875,0.2581787109375,-77.7008056640625
2021-09-28 21:54:43.894204,0.0048828125,-0.07666015625,1.0185546875,-4.1033935546875,0.318603515625,-77.728271484375
2021-09-28 21:54:43.904490,0.0029296875,-0.07568359375,1.021484375,-4.0869140625,0.384521484375,-77.750244140625
2021-09-28 21:54:43.914209,0.00390625,-0.07373046875,1.0244140625,-4.053955078125,0.450439453125,-77.7777099609375
2021-09-28 21:54:43.924082,0.00439453125,-0.06689453125,1.025390625,-4.010009765625,0.5218505859375,-77.80517578125
2021-09-28 21:54:43.933978,0.00732421875,-0.06689453125,1.02978515625,-3.9605712890625,0.59326171875,-77.8271484375
2021-09-28 21:54:43.943911,0.00732421875,-0.064453125,1.0283203125,-3.9056396484375,0.670166015625,-77.84912109375
2021-09-28 21:54:43.954005,0.01025390625,-0.06591796875,1.03173828125,-3.8507080078125,0.7415771484375,-77.860107421875
2021-09-28 21:54:43.964076,0.01025390625,-0.060546875,1.02734375,-3.790283203125,0.8184814453125,-77.8765869140625
2021-09-28 21:54:43.974435,0.0107421875,-0.056640625,1.02490234375,-3.7353515625,0.8953857421875,-77.8875732421875
2021-09-28 21:54:43.984488,0.01220703125,-0.05517578125,1.0166015625,-3.6749267578125,0.966796875,-77.89306640625
2021-09-28 21:54:43.994332,0.00830078125,-0.05615234375,1.015625,-3.6199951171875,1.0382080078125,-77.8985595703125
2021-09-28 21:54:44.004147,0.0048828125,-0.05908203125,1.0146484375,-3.5650634765625,1.1151123046875,-77.8985595703125
2021-09-28 21:54:44.014305,-0.001953125,-0.0595703125,1.0146484375,-3.515625,1.1920166015625,-77.8985595703125
2021-09-28 21:54:44.024317,-0.0068359375,-0.056640625,1.01953125,-3.4716796875,1.2689208984375,-77.8985595703125
2021-09-28 21:54:44.034135,-0.005859375,-0.0537109375,1.021484375,-3.427734375,1.34033203125,-77.8985595703125
2021-09-28 21:54:44.044230,-0.00244140625,-0.0517578125,1.0166015625,-3.394775390625,1.40625,-77.89306640625
2021-09-28 21:54:44.054091,-0.00439453125,-0.04345703125,1.01318359375,-3.36181640625,1.47216796875,-77.89306640625
2021-09-28 21:54:44.064104,-0.0087890625,-0.04443359375,1.0107421875,-3.33984375,1.5325927734375,-77.89306640625
2021-09-28 21:54:44.073973,-0.01123046875,-0.05126953125,1.00537109375,-3.328857421875,1.593017578125,-77.8985595703125
2021-09-28 21:54:44.083851,-0.01318359375,-0.0537109375,0.99853515625,-3.3233642578125,1.64794921875,-77.904052734375
2021-09-28 21:54:44.093762,-0.01123046875,-0.0498046875,0.9951171875,-3.31787109375,1.69189453125,-77.9095458984375
2021-09-28 21:54:44.103801,-0.00927734375,-0.048828125,0.9921875,-3.3123779296875,1.7303466796875,-77.9205322265625
2021-09-28 21:54:44.114422,-0.01513671875,-0.05029296875,0.9912109375,-3.306884765625,1.768798828125,-77.93701171875
2021-09-28 21:54:44.123787,-0.0224609375,-0.048828125,0.994140625,-3.306884765625,1.8017578125,-77.9534912109375
2021-09-28 21:54:44.133687,-0.029296875,-0.04345703125,0.99267578125,-3.3013916015625,1.8292236328125,-77.969970703125
2021-09-28 21:54:44.143623,-0.0302734375,-0.03857421875,0.99267578125,-3.2904052734375,1.856689453125,-77.991943359375
2021-09-28 21:54:44.153756,-0.02978515625,-0.0380859375,0.990234375,-3.2794189453125,1.8731689453125,-78.0194091796875
2021-09-28 21:54:44.163653,-0.02978515625,-0.04150390625,0.98583984375,-3.2684326171875,1.8841552734375,-78.046875
2021-09-28 21:54:44.173566,-0.02880859375,-0.044921875,0.9853515625,-3.2464599609375,1.8896484375,-78.0743408203125
2021-09-28 21:54:44.183765,-0.02587890625,-0.05029296875,0.98681640625,-3.2135009765625,1.8896484375,-78.0963134765625
2021-09-28 21:54:44.193731,-0.03125,-0.0556640625,0.99267578125,-3.1695556640625,1.8951416015625,-78.1182861328125
2021-09-28 21:54:44.203778,-0.03515625,-0.05859375,0.99169921875,-3.1146240234375,1.8951416015625,-78.1402587890625
2021-09-28 21:54:44.213478,-0.0380859375,-0.06005859375,0.99658203125,-3.05419921875,1.8896484375,-78.15673828125
2021-09-28 21:54:44.223310,-0.04443359375,-0.0546875,1.00048828125,-2.9827880859375,1.8841552734375,-78.1732177734375
2021-09-28 21:54:44.233277,-0.044921875,-0.05517578125,1.0,-2.9168701171875,1.86767578125,-78.189697265625
2021-09-28 21:54:44.243270,-0.0458984375,-0.05322265625,1.0029296875,-2.8509521484375,1.8511962890625,-78.211669921875
2021-09-28 21:54:44.253369,-0.04443359375,-0.05419921875,1.0,-2.79052734375,1.8292236328125,-78.2281494140625
2021-09-28 21:54:44.263271,-0.04296875,-0.05419921875,1.00439453125,-2.7301025390625,1.7962646484375,-78.24462890625
2021-09-28 21:54:44.273236,-0.0458984375,-0.0576171875,1.0009765625,-2.6806640625,1.768798828125,-78.2611083984375
2021-09-28 21:54:44.283128,-0.04736328125,-0.05810546875,1.00634765625,-2.625732421875,1.7303466796875,-78.277587890625
2021-09-28 21:54:44.293270,-0.044921875,-0.056640625,1.00244140625,-2.57080078125,1.6973876953125,-78.28857421875
2021-09-28 21:54:44.303120,-0.04443359375,-0.056640625,1.00244140625,-2.5103759765625,1.658935546875,-78.3050537109375
2021-09-28 21:54:44.313049,-0.0439453125,-0.052734375,1.0029296875,-2.449951171875,1.6259765625,-78.3160400390625
2021-09-28 21:54:44.322849,-0.044921875,-0.04443359375,0.998046875,-2.3895263671875,1.5875244140625,-78.3270263671875
2021-09-28 21:54:44.332750,-0.04443359375,-0.03955078125,0.99853515625,-2.3236083984375,1.5545654296875,-78.3380126953125
2021-09-28 21:54:44.343035,-0.04150390625,-0.03564453125,0.99365234375,-2.26318359375,1.51611328125,-78.3489990234375
2021-09-28 21:54:44.352896,-0.0341796875,-0.03271484375,0.99365234375,-2.208251953125,1.4776611328125,-78.3599853515625
2021-09-28 21:54:44.362882,-0.029296875,-0.03173828125,0.98486328125,-2.1588134765625,1.4447021484375,-78.3709716796875
2021-09-28 21:54:44.372817,-0.0234375,-0.03173828125,0.98291015625,-2.109375,1.40625,-78.37646484375
2021-09-28 21:54:44.382797,-0.01953125,-0.03466796875,0.984375,-2.0654296875,1.373291015625,-78.3819580078125
2021-09-28 21:54:44.392635,-0.02099609375,-0.03515625,0.9873046875,-2.032470703125,1.3458251953125,-78.3819580078125
2021-09-28 21:54:44.402646,-0.025390625,-0.03515625,0.98974609375,-2.0050048828125,1.329345703125,-78.3819580078125
2021-09-28 21:54:44.412840,-0.0322265625,-0.03515625,0.9951171875,-1.9830322265625,1.318359375,-78.3819580078125
2021-09-28 21:54:44.422848,-0.03369140625,-0.037109375,1.00244140625,-1.9775390625,1.3128662109375,-78.3819580078125
2021-09-28 21:54:44.432409,-0.033203125,-0.03564453125,1.0,-1.9775390625,1.3128662109375,-78.387451171875
2021-09-28 21:54:44.442346,-0.03271484375,-0.0361328125,1.0,-1.9940185546875,1.318359375,-78.3929443359375
2021-09-28 21:54:44.452254,-0.03271484375,-0.03564453125,0.99755859375,-2.010498046875,1.318359375,-78.4039306640625
2021-09-28 21:54:44.462136,-0.0341796875,-0.03759765625,0.99658203125,-2.0379638671875,1.329345703125,-78.42041015625
2021-09-28 21:54:44.471968,-0.0361328125,-0.0439453125,0.9990234375,-2.076416015625,1.34033203125,-78.4478759765625
2021-09-28 21:54:44.482035,-0.0390625,-0.0478515625,0.998046875,-2.1148681640625,1.3568115234375,-78.486328125
2021-09-28 21:54:44.491927,-0.04052734375,-0.04248046875,0.99755859375,-2.1588134765625,1.3677978515625,-78.541259765625
2021-09-28 21:54:44.501811,-0.0458984375,-0.03955078125,0.99658203125,-2.1917724609375,1.3787841796875,-78.607177734375
2021-09-28 21:54:44.511746,-0.0546875,-0.03759765625,0.99267578125,-2.230224609375,1.395263671875,-78.695068359375
2021-09-28 21:54:44.521745,-0.05859375,-0.03173828125,0.98583984375,-2.2576904296875,1.40625,-78.7994384765625
2021-09-28 21:54:44.531718,-0.05712890625,-0.02587890625,0.9814453125,-2.274169921875,1.4117431640625,-78.9312744140625
2021-09-28 21:54:44.541860,-0.048828125,-0.02880859375,0.97802734375,-2.28515625,1.4117431640625,-79.0740966796875
2021-09-28 21:54:44.551721,-0.03955078125,-0.0390625,0.9853515625,-2.2906494140625,1.4007568359375,-79.2333984375
2021-09-28 21:54:44.561621,-0.03759765625,-0.0361328125,0.9853515625,-2.2796630859375,1.395263671875,-79.4036865234375
2021-09-28 21:54:44.571518,-0.04150390625,-0.02880859375,0.98876953125,-2.2467041015625,1.3897705078125,-79.5794677734375
2021-09-28 21:54:44.581418,-0.04345703125,-0.02734375,0.986328125,-2.197265625,1.3897705078125,-79.7552490234375
2021-09-28 21:54:44.591698,-0.03564453125,-0.02197265625,0.98486328125,-2.120361328125,1.3897705078125,-79.9310302734375
2021-09-28 21:54:44.601579,-0.03076171875,-0.01806640625,0.98828125,-2.021484375,1.3897705078125,-80.0958251953125
2021-09-28 21:54:44.612122,-0.02734375,-0.02001953125,0.98583984375,-1.8951416015625,1.395263671875,-80.2496337890625
2021-09-28 21:54:44.621347,-0.017578125,-0.0224609375,0.9921875,-1.7413330078125,1.4007568359375,-80.3814697265625
2021-09-28 21:54:44.631226,-0.009765625,-0.015625,0.9951171875,-1.5545654296875,1.417236328125,-80.48583984375
2021-09-28 21:54:44.641359,-0.0048828125,-0.0078125,1.00390625,-1.329345703125,1.4447021484375,-80.5572509765625
2021-09-28 21:54:44.651464,-0.0078125,-0.00341796875,1.0048828125,-1.0821533203125,1.4886474609375,-80.595703125
2021-09-28 21:54:44.661283,-0.01904296875,-0.00244140625,1.01171875,-0.81298828125,1.5545654296875,-80.5902099609375
2021-09-28 21:54:44.671345,-0.03369140625,-0.00390625,1.01806640625,-0.5328369140625,1.636962890625,-80.5517578125
2021-09-28 21:54:44.681229,-0.04931640625,0.0009765625,1.01708984375,-0.24169921875,1.7413330078125,-80.4693603515625
2021-09-28 21:54:44.691138,-0.05078125,0.00537109375,1.0224609375,0.054931640625,1.8621826171875,-80.35400390625
2021-09-28 21:54:44.701088,-0.04931640625,0.005859375,1.0224609375,0.3570556640625,1.9830322265625,-80.189208984375
2021-09-28 21:54:44.711287,-0.05078125,0.0,1.02978515625,0.6427001953125,2.109375,-79.9749755859375
2021-09-28 21:54:44.721098,-0.0537109375,-0.0126953125,1.03759765625,0.9063720703125,2.2412109375,-79.716796875
2021-09-28 21:54:44.731122,-0.0595703125,-0.00830078125,1.04345703125,1.153564453125,2.3785400390625,-79.4091796875
2021-09-28 21:54:44.740984,-0.06689453125,0.0078125,1.0458984375,1.373291015625,2.515869140625,-79.046630859375
2021-09-28 21:54:44.750911,-0.07568359375,0.02880859375,1.0400390625,1.5655517578125,2.65869140625,-78.6346435546875
2021-09-28 21:54:44.760840,-0.09033203125,0.0380859375,1.0283203125,1.7193603515625,2.7960205078125,-78.1732177734375
2021-09-28 21:54:44.770719,-0.10400390625,0.04296875,1.0234375,1.834716796875,2.9388427734375,-77.6678466796875
2021-09-28 21:54:44.780771,-0.10595703125,0.04638671875,1.01220703125,1.9061279296875,3.0706787109375,-77.10205078125
2021-09-28 21:54:44.790816,-0.09814453125,0.0361328125,1.009765625,1.9390869140625,3.1915283203125,-76.4923095703125
2021-09-28 21:54:44.800757,-0.087890625,0.0390625,0.998046875,1.944580078125,3.2958984375,-75.8221435546875
2021-09-28 21:54:44.810624,-0.0810546875,0.04541015625,0.99560546875,1.93359375,3.3892822265625,-75.091552734375
2021-09-28 21:54:44.820569,-0.0751953125,0.0498046875,0.98681640625,1.9061279296875,3.4716796875,-74.3060302734375
2021-09-28 21:54:44.830773,-0.072265625,0.05517578125,0.9755859375,1.8621826171875,3.548583984375,-73.4600830078125
2021-09-28 21:54:44.840661,-0.0654296875,0.04638671875,0.9765625,1.8072509765625,3.614501953125,-72.5537109375
2021-09-28 21:54:44.850509,-0.05859375,0.0341796875,0.97021484375,1.73583984375,3.6749267578125,-71.5869140625
2021-09-28 21:54:44.860407,-0.0498046875,0.03515625,0.97314453125,1.6534423828125,3.724365234375,-70.565185546875
2021-09-28 21:54:44.870330,-0.04345703125,0.03759765625,0.9765625,1.56005859375,3.7628173828125,-69.488525390625
2021-09-28 21:54:44.880417,-0.04736328125,0.03564453125,0.9716796875,1.4501953125,3.80126953125,-68.3624267578125
2021-09-28 21:54:44.890503,-0.0517578125,0.03564453125,0.9775390625,1.329345703125,3.834228515625,-67.1923828125
2021-09-28 21:54:44.900363,-0.0625,0.0322265625,0.970703125,1.197509765625,3.8671875,-65.9783935546875
2021-09-28 21:54:44.910286,-0.072265625,0.029296875,0.9658203125,1.0601806640625,3.900146484375,-64.7314453125
2021-09-28 21:54:44.920368,-0.07373046875,0.02001953125,0.966796875,0.911865234375,3.9276123046875,-63.45703125
2021-09-28 21:54:44.930279,-0.0615234375,0.0048828125,0.966796875,0.758056640625,3.9385986328125,-62.1551513671875
2021-09-28 21:54:44.940188,-0.048828125,-0.00048828125,0.9619140625,0.6097412109375,3.93310546875,-60.8367919921875
2021-09-28 21:54:44.950250,-0.04638671875,-0.00537109375,0.96826171875,0.4669189453125,3.922119140625,-59.4964599609375
2021-09-28 21:54:44.960270,-0.0478515625,-0.0166015625,0.96435546875,0.32958984375,3.9111328125,-58.150634765625
2021-09-28 21:54:44.970183,-0.052734375,-0.017578125,0.9677734375,0.2142333984375,3.900146484375,-56.7938232421875
2021-09-28 21:54:44.980060,-0.064453125,-0.0146484375,0.97509765625,0.120849609375,3.88916015625,-55.43701171875
2021-09-28 21:54:44.990017,-0.0810546875,-0.01220703125,0.97412109375,0.0604248046875,3.878173828125,-54.0966796875
2021-09-28 21:54:44.999916,-0.08837890625,-0.01220703125,0.98388671875,0.032958984375,3.8671875,-52.767333984375
2021-09-28 21:54:45.010169,-0.09033203125,-0.00634765625,0.98828125,0.0384521484375,3.84521484375,-51.470947265625
2021-09-28 21:54:45.020585,-0.0888671875,-0.00927734375,0.98291015625,0.0823974609375,3.80126953125,-50.196533203125
2021-09-28 21:54:45.029978,-0.08251953125,-0.001953125,0.9873046875,0.1593017578125,3.7353515625,-48.9605712890625
2021-09-28 21:54:45.039867,-0.0732421875,0.00146484375,0.9892578125,0.2691650390625,3.6529541015625,-47.7630615234375
2021-09-28 21:54:45.049914,-0.06640625,-0.00146484375,0.98681640625,0.406494140625,3.5430908203125,-46.6094970703125
2021-09-28 21:54:45.059881,-0.06494140625,0.01171875,0.99169921875,0.5657958984375,3.40576171875,-45.50537109375
2021-09-28 21:54:45.069738,-0.07373046875,0.0107421875,0.994140625,0.7305908203125,3.251953125,-44.45068359375
2021-09-28 21:54:45.079804,-0.07861328125,0.0048828125,0.9990234375,0.8843994140625,3.076171875,-43.4619140625
2021-09-28 21:54:45.089693,-0.0654296875,-0.00341796875,1.00439453125,1.021728515625,2.867431640625,-42.5390625
2021-09-28 21:54:45.099610,-0.04345703125,0.0087890625,0.99755859375,1.1480712890625,2.625732421875,-41.671142578125
2021-09-28 21:54:45.110191,-0.02783203125,0.02001953125,1.0,1.25244140625,2.3565673828125,-40.8636474609375
2021-09-28 21:54:45.119605,-0.017578125,0.0234375,0.998046875,1.318359375,2.0654296875,-40.111083984375
2021-09-28 21:54:45.129557,-0.0087890625,0.01806640625,0.98681640625,1.3568115234375,1.7578125,-39.407958984375
2021-09-28 21:54:45.139690,-0.0009765625,0.00390625,0.9755859375,1.3568115234375,1.4447021484375,-38.748779296875
2021-09-28 21:54:45.149607,0.00830078125,0.00341796875,0.974609375,1.3348388671875,1.1260986328125,-38.12255859375
2021-09-28 21:54:45.159468,0.02001953125,0.005859375,0.9736328125,1.3018798828125,0.81298828125,-37.529296875
2021-09-28 21:54:45.169379,0.02587890625,0.00341796875,0.9736328125,1.2579345703125,0.50537109375,-36.9635009765625
2021-09-28 21:54:45.179289,0.02587890625,0.001953125,0.97607421875,1.197509765625,0.2197265625,-36.4141845703125
2021-09-28 21:54:45.189418,0.02978515625,0.00146484375,0.97998046875,1.1260986328125,-0.0494384765625,-35.8868408203125
2021-09-28 21:54:45.199635,0.0322265625,-0.00390625,0.9814453125,1.0382080078125,-0.296630859375,-35.3759765625
2021-09-28 21:54:45.209361,0.04296875,-0.0107421875,0.97705078125,0.9393310546875,-0.5218505859375,-34.8651123046875
2021-09-28 21:54:45.219161,0.060546875,-0.01123046875,0.9697265625,0.8349609375,-0.72509765625,-34.3597412109375
2021-09-28 21:54:45.229084,0.060546875,-0.0126953125,0.97314453125,0.72509765625,-0.8843994140625,-33.8543701171875
2021-09-28 21:54:45.239034,0.04541015625,-0.02490234375,0.98193359375,0.615234375,-0.999755859375,-33.3544921875
2021-09-28 21:54:45.249120,0.03173828125,-0.03857421875,0.984375,0.494384765625,-1.0601806640625,-32.8546142578125
2021-09-28 21:54:45.259196,0.0322265625,-0.0439453125,0.98876953125,0.362548828125,-1.087646484375,-32.3602294921875
2021-09-28 21:54:45.269553,0.029296875,-0.0419921875,0.9921875,0.2252197265625,-1.0711669921875,-31.88232421875
2021-09-28 21:54:45.279392,0.0166015625,-0.03955078125,1.00048828125,0.076904296875,-1.021728515625,-31.4263916015625
2021-09-28 21:54:45.289689,0.00390625,-0.04833984375,0.99951171875,-0.087890625,-0.9283447265625,-30.9869384765625
2021-09-28 21:54:45.299450,0.00048828125,-0.05078125,0.99365234375,-0.2691650390625,-0.81298828125,-30.5694580078125
2021-09-28 21:54:45.309339,-0.0048828125,-0.0478515625,1.00146484375,-0.450439453125,-0.6756591796875,-30.179443359375
2021-09-28 21:54:45.319270,-0.00927734375,-0.05224609375,0.998046875,-0.6317138671875,-0.5108642578125,-29.805908203125
2021-09-28 21:54:45.329315,-0.0068359375,-0.0556640625,0.9951171875,-0.8074951171875,-0.32958984375,-29.443359375
2021-09-28 21:54:45.339359,-0.0029296875,-0.0556640625,0.99853515625,-0.966796875,-0.1318359375,-29.0972900390625
2021-09-28 21:54:45.349204,-0.0078125,-0.05517578125,1.009765625,-1.1151123046875,0.0714111328125,-28.7567138671875
2021-09-28 21:54:45.359145,-0.01904296875,-0.0556640625,1.0185546875,-1.2579345703125,0.3021240234375,-28.4271240234375
2021-09-28 21:54:45.369162,-0.03466796875,-0.05615234375,1.02978515625,-1.38427734375,0.5438232421875,-28.10302734375
2021-09-28 21:54:45.378964,-0.04150390625,-0.05712890625,1.0302734375,-1.505126953125,0.791015625,-27.7899169921875
2021-09-28 21:54:45.389208,-0.048828125,-0.05859375,1.02880859375,-1.6094970703125,1.03271484375,-27.48779296875
2021-09-28 21:54:45.398998,-0.05078125,-0.0576171875,1.0263671875,-1.6864013671875,1.2799072265625,-27.191162109375
2021-09-28 21:54:45.408886,-0.04052734375,-0.0478515625,1.01171875,-1.724853515625,1.5216064453125,-26.89453125
2021-09-28 21:54:45.418853,-0.02978515625,-0.037109375,1.00439453125,-1.7193603515625,1.7523193359375,-26.597900390625
2021-09-28 21:54:45.428770,-0.02880859375,-0.03369140625,0.99609375,-1.669921875,1.9830322265625,-26.3067626953125
2021-09-28 21:54:45.438785,-0.04736328125,-0.0361328125,0.9921875,-1.5875244140625,2.21923828125,-26.0211181640625
2021-09-28 21:54:45.448844,-0.068359375,-0.0458984375,0.99853515625,-1.483154296875,2.4554443359375,-25.751953125
2021-09-28 21:54:45.458632,-0.08154296875,-0.03857421875,1.00341796875,-1.351318359375,2.6861572265625,-25.499267578125
2021-09-28 21:54:45.468678,-0.083984375,-0.029296875,1.009765625,-1.1920166015625,2.9058837890625,-25.2740478515625
2021-09-28 21:54:45.478548,-0.07861328125,-0.0234375,1.01904296875,-1.021728515625,3.09814453125,-25.0653076171875
2021-09-28 21:54:45.488720,-0.0712890625,-0.0185546875,1.01708984375,-0.845947265625,3.27392578125,-24.862060546875
2021-09-28 21:54:45.498731,-0.064453125,-0.01416015625,1.013671875,-0.6646728515625,3.427734375,-24.664306640625
2021-09-28 21:54:45.508568,-0.06591796875,-0.01513671875,1.01220703125,-0.4888916015625,3.5595703125,-24.466552734375
2021-09-28 21:54:45.518469,-0.0703125,-0.015625,1.01123046875,-0.3131103515625,3.680419921875,-24.2633056640625
2021-09-28 21:54:45.528686,-0.08837890625,-0.015625,1.01416015625,-0.1483154296875,3.7847900390625,-24.06005859375
2021-09-28 21:54:45.538527,-0.09619140625,-0.02001953125,1.01904296875,0.0,3.8726806640625,-23.8458251953125
2021-09-28 21:54:45.548442,-0.08984375,-0.01318359375,1.02392578125,0.1318359375,3.922119140625,-23.6260986328125
2021-09-28 21:54:45.558065,-0.0771484375,-0.00244140625,1.0263671875,0.2581787109375,3.944091796875,-23.3953857421875
2021-09-28 21:54:45.568470,-0.06591796875,-0.0009765625,1.02099609375,0.3680419921875,3.9385986328125,-23.148193359375
2021-09-28 21:54:45.578396,-0.05712890625,0.00048828125,1.0126953125,0.4559326171875,3.9056396484375,-22.8790283203125
2021-09-28 21:54:45.588412,-0.05078125,0.00439453125,0.99951171875,0.5438232421875,3.8616943359375,-22.5933837890625
2021-09-28 21:54:45.598381,-0.04833984375,0.0078125,0.98291015625,0.6207275390625,3.7957763671875,-22.2857666015625
2021-09-28 21:54:45.608812,-0.0595703125,0.0048828125,0.97998046875,0.6976318359375,3.7188720703125,-21.961669921875
2021-09-28 21:54:45.618085,-0.06884765625,0.00390625,0.98193359375,0.7745361328125,3.636474609375,-21.6265869140625
2021-09-28 21:54:45.628045,-0.06787109375,0.0048828125,0.97998046875,0.8514404296875,3.5321044921875,-21.2860107421875
2021-09-28 21:54:45.638067,-0.0615234375,0.0048828125,0.97998046875,0.9283447265625,3.4112548828125,-20.9344482421875
2021-09-28 21:54:45.648020,-0.0439453125,0.0068359375,0.98095703125,0.9942626953125,3.262939453125,-20.5828857421875
2021-09-28 21:54:45.657933,-0.0302734375,0.01220703125,0.9833984375,1.0491943359375,3.09814453125,-20.2203369140625
2021-09-28 21:54:45.667819,-0.021484375,0.0087890625,0.978515625,1.087646484375,2.9278564453125,-19.852294921875
2021-09-28 21:54:45.677769,-0.0166015625,0.0029296875,0.98486328125,1.0986328125,2.7410888671875,-19.478759765625
2021-09-28 21:54:45.687743,-0.01220703125,0.00146484375,0.978515625,1.087646484375,2.5543212890625,-19.1107177734375
2021-09-28 21:54:45.697855,-0.01416015625,0.00048828125,0.9775390625,1.0546875,2.3675537109375,-18.7481689453125
2021-09-28 21:54:45.707788,-0.025390625,-0.00146484375,0.96875,0.9942626953125,2.186279296875,-18.402099609375
2021-09-28 21:54:45.717642,-0.03564453125,-0.0068359375,0.97314453125,0.9228515625,2.0159912109375,-18.0670166015625
2021-09-28 21:54:45.727640,-0.03369140625,-0.005859375,0.97607421875,0.8404541015625,1.845703125,-17.7593994140625
2021-09-28 21:54:45.737493,-0.01904296875,0.00244140625,0.974609375,0.7525634765625,1.669921875,-17.46826171875
2021-09-28 21:54:45.747415,-0.0087890625,0.00048828125,0.97509765625,0.6536865234375,1.505126953125,-17.1990966796875
2021-09-28 21:54:45.757390,-0.001953125,-0.0009765625,0.974609375,0.5548095703125,1.3568115234375,-16.9464111328125
2021-09-28 21:54:45.767496,-0.00390625,-0.00537109375,0.97509765625,0.450439453125,1.219482421875,-16.7156982421875
2021-09-28 21:54:45.777321,-0.00439453125,-0.00830078125,0.9775390625,0.3515625,1.109619140625,-16.50146484375
2021-09-28 21:54:45.787380,-0.0029296875,-0.00732421875,0.97607421875,0.2581787109375,1.0107421875,-16.3092041015625
2021-09-28 21:54:45.797225,-0.00390625,-0.0029296875,0.9833984375,0.17578125,0.9393310546875,-16.138916015625
2021-09-28 21:54:45.807368,-0.00830078125,-0.00732421875,0.98388671875,0.098876953125,0.8843994140625,-15.99609375
2021-09-28 21:54:45.817261,-0.00634765625,-0.009765625,0.9873046875,0.032958984375,0.8514404296875,-15.8697509765625
2021-09-28 21:54:45.827187,0.00341796875,-0.0087890625,0.9833984375,-0.02197265625,0.823974609375,-15.7708740234375
2021-09-28 21:54:45.837057,0.00830078125,-0.009765625,0.986328125,-0.076904296875,0.8184814453125,-15.6939697265625
2021-09-28 21:54:45.847125,0.005859375,-0.0078125,0.9892578125,-0.1153564453125,0.8349609375,-15.633544921875
2021-09-28 21:54:45.857249,-0.00390625,-0.01220703125,1.00048828125,-0.15380859375,0.867919921875,-15.5950927734375
2021-09-28 21:54:45.867142,-0.0185546875,-0.01416015625,1.0068359375,-0.1812744140625,0.9283447265625,-15.5731201171875
2021-09-28 21:54:45.877042,-0.03466796875,-0.0166015625,1.0107421875,-0.19775390625,1.0107421875,-15.5731201171875
2021-09-28 21:54:45.886945,-0.03076171875,-0.01318359375,1.01220703125,-0.1922607421875,1.1041259765625,-15.589599609375
2021-09-28 21:54:45.896831,-0.03076171875,-0.01318359375,1.01220703125,-0.186767578125,1.1920166015625,-15.6060791015625
2021-09-28 21:54:45.906954,-0.01806640625,-0.0087890625,1.0048828125,-0.164794921875,1.2908935546875,-15.6280517578125
2021-09-28 21:54:45.916798,0.00439453125,-0.00146484375,0.99462890625,-0.1153564453125,1.3897705078125,-15.655517578125
2021-09-28 21:54:45.926765,0.00634765625,0.00244140625,0.99072265625,-0.0439453125,1.505126953125,-15.677490234375
2021-09-28 21:54:45.936672,-0.01171875,-0.00341796875,0.99560546875,0.032958984375,1.636962890625,-15.699462890625
2021-09-28 21:54:45.946635,-0.02880859375,-0.00927734375,0.998046875,0.120849609375,1.7962646484375,-15.7159423828125
2021-09-28 21:54:45.956575,-0.03662109375,-0.00537109375,1.00244140625,0.2142333984375,1.9610595703125,-15.743408203125
2021-09-28 21:54:45.966637,-0.03955078125,-0.00341796875,1.0078125,0.3021240234375,2.1258544921875,-15.765380859375
2021-09-28 21:54:45.976502,-0.041015625,-0.00244140625,1.001953125,0.384521484375,2.28515625,-15.79833984375
2021-09-28 21:54:45.986426,-0.0361328125,-0.00390625,0.99462890625,0.4559326171875,2.43896484375,-15.831298828125
2021-09-28 21:54:45.996584,-0.0283203125,0.0009765625,0.98876953125,0.5218505859375,2.581787109375,-15.8642578125
2021-09-28 21:54:46.006629,-0.03173828125,0.005859375,0.98291015625,0.582275390625,2.7191162109375,-15.8917236328125
2021-09-28 21:54:46.016445,-0.0439453125,0.00341796875,0.9794921875,0.63720703125,2.8564453125,-15.9246826171875
2021-09-28 21:54:46.026437,-0.0556640625,0.0009765625,0.9814453125,0.68115234375,2.9827880859375,-15.9521484375
2021-09-28 21:54:46.036336,-0.06396484375,0.0,0.98779296875,0.7086181640625,3.1036376953125,-15.985107421875
2021-09-28 21:54:46.045829,-0.06005859375,0.00244140625,0.9931640625,0.72509765625,3.2080078125,-16.0125732421875
2021-09-28 21:54:46.056241,-0.05859375,0.00390625,0.99267578125,0.7305908203125,3.2958984375,-16.0345458984375
2021-09-28 21:54:46.066318,-0.05859375,-0.0048828125,0.9892578125,0.714111328125,3.3673095703125,-16.0565185546875
2021-09-28 21:54:46.076183,-0.0615234375,-0.005859375,0.98095703125,0.6976318359375,3.427734375,-16.072998046875
2021-09-28 21:54:46.086089,-0.06396484375,-0.0068359375,0.97998046875,0.6756591796875,3.4716796875,-16.083984375
2021-09-28 21:54:46.096030,-0.06396484375,-0.00146484375,0.9775390625,0.6591796875,3.4991455078125,-16.083984375
2021-09-28 21:54:46.106586,-0.056640625,0.00341796875,0.97900390625,0.6536865234375,3.5101318359375,-16.072998046875
2021-09-28 21:54:46.115984,-0.0546875,0.00634765625,0.98583984375,0.648193359375,3.504638671875,-16.051025390625
2021-09-28 21:54:46.126158,-0.05517578125,0.00537109375,0.99267578125,0.63720703125,3.4881591796875,-16.01806640625
2021-09-28 21:54:46.136137,-0.05517578125,0.00830078125,0.9931640625,0.615234375,3.4552001953125,-15.9686279296875
2021-09-28 21:54:46.145928,-0.06494140625,0.0029296875,1.00146484375,0.5767822265625,3.4222412109375,-15.919189453125
2021-09-28 21:54:46.156092,-0.0751953125,-0.00146484375,1.0048828125,0.52734375,3.372802734375,-15.8642578125
2021-09-28 21:54:46.165886,-0.0810546875,-0.001953125,1.009765625,0.46142578125,3.3123779296875,-15.8038330078125
2021-09-28 21:54:46.175811,-0.08154296875,0.00048828125,1.01025390625,0.3955078125,3.240966796875,-15.7379150390625
2021-09-28 21:54:46.185891,-0.076171875,0.00439453125,1.00634765625,0.32958984375,3.1475830078125,-15.66650390625
2021-09-28 21:54:46.195863,-0.0654296875,0.009765625,1.00341796875,0.2691650390625,3.0322265625,-15.5950927734375
2021-09-28 21:54:46.205793,-0.0556640625,0.009765625,1.0,0.2197265625,2.900390625,-15.5072021484375
2021-09-28 21:54:46.215680,-0.04638671875,0.0107421875,0.99853515625,0.17578125,2.757568359375,-15.413818359375
2021-09-28 21:54:46.225587,-0.0439453125,0.009765625,1.001953125,0.142822265625,2.603759765625,-15.3094482421875
2021-09-28 21:54:46.235656,-0.04296875,0.0068359375,1.00732421875,0.10986328125,2.449951171875,-15.194091796875
2021-09-28 21:54:46.245656,-0.03857421875,0.00341796875,1.01220703125,0.087890625,2.296142578125,-15.0732421875
2021-09-28 21:54:46.255589,-0.0380859375,0.00048828125,1.00927734375,0.0604248046875,2.1368408203125,-14.9468994140625
2021-09-28 21:54:46.265649,-0.0341796875,-0.00244140625,1.0078125,0.032958984375,1.9775390625,-14.8150634765625
2021-09-28 21:54:46.275698,-0.03076171875,-0.001953125,1.00732421875,0.0054931640625,1.82373046875,-14.6832275390625
2021-09-28 21:54:46.285537,-0.025390625,0.00146484375,0.998046875,-0.010986328125,1.6644287109375,-14.5513916015625
2021-09-28 21:54:46.295105,-0.0205078125,0.001953125,1.00146484375,-0.0384521484375,1.5106201171875,-14.425048828125
2021-09-28 21:54:46.305418,-0.0185546875,0.00244140625,1.00048828125,-0.06591796875,1.3568115234375,-14.30419921875
2021-09-28 21:54:46.315285,-0.0185546875,0.00146484375,0.99853515625,-0.098876953125,1.20849609375,-14.1943359375
2021-09-28 21:54:46.325388,-0.01416015625,0.0,0.9970703125,-0.1263427734375,1.065673828125,-14.0899658203125
2021-09-28 21:54:46.334926,-0.009765625,0.0,0.99462890625,-0.164794921875,0.9228515625,-13.99658203125
2021-09-28 21:54:46.344833,-0.01220703125,-0.00341796875,0.9912109375,-0.2032470703125,0.791015625,-13.9141845703125
2021-09-28 21:54:46.355145,-0.017578125,-0.01025390625,0.9892578125,-0.24169921875,0.6646728515625,-13.8427734375
2021-09-28 21:54:46.365038,-0.01513671875,-0.0107421875,0.99072265625,-0.28564453125,0.5438232421875,-13.7823486328125
2021-09-28 21:54:46.375187,-0.001953125,-0.0087890625,0.99072265625,-0.318603515625,0.4229736328125,-13.73291015625
2021-09-28 21:54:46.385082,0.0126953125,-0.00390625,0.9892578125,-0.3460693359375,0.3076171875,-13.6834716796875
2021-09-28 21:54:46.394970,0.0185546875,-0.00244140625,0.98876953125,-0.37353515625,0.19775390625,-13.64501953125
2021-09-28 21:54:46.405274,0.01611328125,-0.0078125,0.98681640625,-0.3955078125,0.098876953125,-13.6065673828125
2021-09-28 21:54:46.415172,0.0087890625,-0.01025390625,0.98974609375,-0.4119873046875,0.02197265625,-13.5736083984375
2021-09-28 21:54:46.425134,-0.001953125,-0.015625,0.99365234375,-0.428466796875,-0.0274658203125,-13.5516357421875
2021-09-28 21:54:46.434926,-0.00439453125,-0.01708984375,0.9951171875,-0.4339599609375,-0.0714111328125,-13.5296630859375
2021-09-28 21:54:46.444848,-0.001953125,-0.015625,0.99658203125,-0.4339599609375,-0.10986328125,-13.5186767578125
2021-09-28 21:54:46.454769,0.0048828125,-0.01025390625,0.99951171875,-0.41748046875,-0.1318359375,-13.5076904296875
2021-09-28 21:54:46.464701,0.0126953125,-0.00634765625,1.00048828125,-0.3955078125,-0.15380859375,-13.4967041015625
2021-09-28 21:54:46.474850,0.017578125,-0.005859375,1.0,-0.362548828125,-0.164794921875,-13.4857177734375
2021-09-28 21:54:46.484661,0.01904296875,-0.00732421875,0.9970703125,-0.3350830078125,-0.1702880859375,-13.4747314453125
2021-09-28 21:54:46.494607,0.01318359375,-0.00927734375,0.9951171875,-0.3021240234375,-0.1593017578125,-13.4637451171875
2021-09-28 21:54:46.504560,0.0048828125,-0.01416015625,0.99560546875,-0.274658203125,-0.142822265625,-13.4527587890625
2021-09-28 21:54:46.514697,-0.001953125,-0.015625,0.9951171875,-0.2471923828125,-0.120849609375,-13.447265625
2021-09-28 21:54:46.524542,0.001953125,-0.0126953125,0.9970703125,-0.230712890625,-0.098876953125,-13.4527587890625
2021-09-28 21:54:46.534433,0.0068359375,-0.00830078125,0.9921875,-0.208740234375,-0.076904296875,-13.4637451171875
2021-09-28 21:54:46.544537,0.01611328125,-0.0048828125,0.9912109375,-0.19775390625,-0.06591796875,-13.4747314453125
2021-09-28 21:54:46.554663,0.0224609375,-0.00146484375,0.986328125,-0.186767578125,-0.054931640625,-13.4857177734375
2021-09-28 21:54:46.564607,0.02294921875,-0.00048828125,0.98486328125,-0.186767578125,-0.0439453125,-13.502197265625
2021-09-28 21:54:46.574430,0.013671875,-0.00390625,0.9921875,-0.1922607421875,-0.032958984375,-13.5186767578125
2021-09-28 21:54:46.584273,-0.0029296875,-0.00927734375,0.994140625,-0.2142333984375,-0.0164794921875,-13.5406494140625
2021-09-28 21:54:46.594240,-0.01123046875,-0.01220703125,1.001953125,-0.2471923828125,0.0,-13.568115234375
2021-09-28 21:54:46.604856,-0.01416015625,-0.0146484375,1.00146484375,-0.2911376953125,0.010986328125,-13.60107421875
2021-09-28 21:54:46.613941,-0.00537109375,-0.0126953125,1.00390625,-0.340576171875,0.0054931640625,-13.6395263671875
2021-09-28 21:54:46.623821,0.00341796875,-0.01171875,0.9951171875,-0.3955078125,0.0,-13.677978515625
2021-09-28 21:54:46.633792,0.00927734375,-0.01025390625,0.99462890625,-0.4449462890625,-0.02197265625,-13.7109375
2021-09-28 21:54:46.643689,0.01318359375,-0.0078125,0.994140625,-0.4888916015625,-0.0494384765625,-13.743896484375
2021-09-28 21:54:46.653963,0.01220703125,-0.0048828125,0.9921875,-0.52734375,-0.0823974609375,-13.7713623046875
2021-09-28 21:54:46.664072,0.0087890625,-0.0029296875,0.9990234375,-0.560302734375,-0.1153564453125,-13.7933349609375
2021-09-28 21:54:46.673924,0.0068359375,-0.00439453125,0.99853515625,-0.5877685546875,-0.1483154296875,-13.8153076171875
2021-09-28 21:54:46.683958,0.00244140625,-0.0068359375,1.0029296875,-0.615234375,-0.186767578125,-13.831787109375
2021-09-28 21:54:46.694236,-0.0078125,-0.017578125,1.005859375,-0.6427001953125,-0.2252197265625,-13.8482666015625
2021-09-28 21:54:46.704098,-0.01513671875,-0.01953125,1.0048828125,-0.6756591796875,-0.263671875,-13.8702392578125
2021-09-28 21:54:46.713929,-0.01513671875,-0.0185546875,1.0078125,-0.6976318359375,-0.3076171875,-13.88671875
2021-09-28 21:54:46.723839,-0.00537109375,-0.01806640625,1.00439453125,-0.714111328125,-0.362548828125,-13.9031982421875
2021-09-28 21:54:46.733739,0.00927734375,-0.0107421875,1.00439453125,-0.714111328125,-0.4229736328125,-13.919677734375
2021-09-28 21:54:46.743827,0.02001953125,-0.00634765625,0.99755859375,-0.703125,-0.4888916015625,-13.9251708984375
2021-09-28 21:54:46.753721,0.02294921875,-0.00439453125,0.99853515625,-0.68115234375,-0.5548095703125,-13.9251708984375
2021-09-28 21:54:46.763696,0.01806640625,-0.00634765625,0.9990234375,-0.6536865234375,-0.615234375,-13.919677734375
2021-09-28 21:54:46.773699,0.0068359375,-0.0126953125,0.99853515625,-0.626220703125,-0.6646728515625,-13.90869140625
2021-09-28 21:54:46.783541,0.0,-0.01904296875,1.0048828125,-0.5987548828125,-0.714111328125,-13.9031982421875
2021-09-28 21:54:46.793027,-0.00048828125,-0.01708984375,1.00048828125,-0.560302734375,-0.758056640625,-13.8922119140625
2021-09-28 21:54:46.803553,0.005859375,-0.013671875,1.0048828125,-0.516357421875,-0.8074951171875,-13.88671875
2021-09-28 21:54:46.813573,0.0146484375,-0.00732421875,0.99853515625,-0.4559326171875,-0.8624267578125,-13.875732421875
2021-09-28 21:54:46.823529,0.02587890625,0.0029296875,0.99951171875,-0.384521484375,-0.911865234375,-13.86474609375
2021-09-28 21:54:46.833454,0.029296875,0.0078125,1.00048828125,-0.3021240234375,-0.955810546875,-13.8482666015625
2021-09-28 21:54:46.843285,0.02783203125,0.00830078125,0.9970703125,-0.2197265625,-0.9942626953125,-13.8262939453125
2021-09-28 21:54:46.853472,0.02001953125,0.005859375,0.99755859375,-0.1373291015625,-1.0162353515625,-13.809814453125
2021-09-28 21:54:46.863328,0.009765625,0.00048828125,1.00048828125,-0.06591796875,-1.03271484375,-13.7933349609375
2021-09-28 21:54:46.873193,-0.00048828125,-0.0029296875,1.0068359375,-0.010986328125,-1.043701171875,-13.787841796875
2021-09-28 21:54:46.883300,-0.00390625,-0.0048828125,1.00439453125,0.032958984375,-1.043701171875,-13.7933349609375
2021-09-28 21:54:46.892829,0.00048828125,-0.00634765625,1.0029296875,0.0714111328125,-1.0491943359375,-13.809814453125
2021-09-28 21:54:46.903170,0.01611328125,0.00146484375,0.994140625,0.10986328125,-1.065673828125,-13.831787109375
2021-09-28 21:54:46.913034,0.0234375,0.00732421875,0.9921875,0.142822265625,-1.07666015625,-13.8592529296875
2021-09-28 21:54:46.923045,0.02880859375,0.005859375,0.98779296875,0.1702880859375,-1.087646484375,-13.88671875
2021-09-28 21:54:46.933125,0.0234375,0.00537109375,0.9912109375,0.186767578125,-1.087646484375,-13.919677734375
2021-09-28 21:54:46.942960,0.00927734375,-0.00244140625,0.99462890625,0.186767578125,-1.07666015625,-13.95263671875
2021-09-28 21:54:46.953168,0.0,-0.01123046875,0.994140625,0.1812744140625,-1.0546875,-13.9910888671875
2021-09-28 21:54:46.962430,0.00390625,-0.00634765625,0.99267578125,0.1702880859375,-1.0272216796875,-14.0350341796875
2021-09-28 21:54:46.973163,0.01318359375,-0.00537109375,0.994140625,0.1593017578125,-1.0052490234375,-14.073486328125
2021-09-28 21:54:46.983036,0.017578125,0.0,0.99169921875,0.1373291015625,-0.977783203125,-14.117431640625
2021-09-28 21:54:46.992484,0.01708984375,-0.00732421875,0.99462890625,0.1153564453125,-0.94482421875,-14.1558837890625
2021-09-28 21:54:47.002766,0.01708984375,-0.01025390625,0.99267578125,0.087890625,-0.90087890625,-14.183349609375
2021-09-28 21:54:47.012710,0.01953125,-0.0078125,0.99755859375,0.0604248046875,-0.8514404296875,-14.2108154296875
2021-09-28 21:54:47.022751,0.01806640625,-0.0078125,0.99853515625,0.032958984375,-0.802001953125,-14.2327880859375
2021-09-28 21:54:47.032647,0.0166015625,-0.00634765625,1.00244140625,0.010986328125,-0.7415771484375,-14.249267578125
2021-09-28 21:54:47.042543,0.0087890625,-0.0107421875,1.0,-0.0054931640625,-0.670166015625,-14.2657470703125
2021-09-28 21:54:47.052513,0.0029296875,-0.0146484375,0.9951171875,-0.0274658203125,-0.5987548828125,-14.2767333984375
2021-09-28 21:54:47.062386,-0.00390625,-0.01611328125,0.9921875,-0.0439453125,-0.516357421875,-14.293212890625
2021-09-28 21:54:47.072634,-0.0087890625,-0.0146484375,0.99267578125,-0.054931640625,-0.4339599609375,-14.30419921875
2021-09-28 21:54:47.082468,-0.00732421875,-0.00830078125,0.9931640625,-0.0494384765625,-0.3515625,-14.3206787109375
2021-09-28 21:54:47.092381,-0.00048828125,-0.00341796875,0.99951171875,-0.032958984375,-0.2691650390625,-14.3316650390625
2021-09-28 21:54:47.103101,0.001953125,-0.00390625,0.998046875,-0.0054931640625,-0.186767578125,-14.3426513671875
2021-09-28 21:54:47.112590,0.00390625,-0.0029296875,0.99755859375,0.0164794921875,-0.10986328125,-14.34814453125
2021-09-28 21:54:47.122110,0.005859375,-0.001953125,0.9970703125,0.0494384765625,-0.0384521484375,-14.34814453125
2021-09-28 21:54:47.132350,0.00634765625,-0.00244140625,1.00341796875,0.0823974609375,0.0274658203125,-14.34814453125
2021-09-28 21:54:47.142447,0.00390625,-0.00537109375,1.00244140625,0.1043701171875,0.098876953125,-14.3426513671875
2021-09-28 21:54:47.152352,0.0,-0.0048828125,1.0048828125,0.1153564453125,0.1593017578125,-14.34814453125
2021-09-28 21:54:47.161548,-0.009765625,-0.0029296875,1.00244140625,0.1153564453125,0.2252197265625,-14.3536376953125
2021-09-28 21:54:47.172183,-0.0146484375,-0.00537109375,0.99658203125,0.1043701171875,0.2801513671875,-14.3701171875
2021-09-28 21:54:47.182077,-0.0146484375,-0.00537109375,0.9912109375,0.0823974609375,0.3240966796875,-14.3865966796875
2021-09-28 21:54:47.192211,-0.005859375,-0.00048828125,0.98876953125,0.054931640625,0.3515625,-14.4140625
2021-09-28 21:54:47.202082,0.0048828125,0.001953125,0.98486328125,0.0274658203125,0.37353515625,-14.447021484375
2021-09-28 21:54:47.212034,0.00732421875,0.0029296875,0.98876953125,-0.0054931640625,0.3790283203125,-14.4744873046875
2021-09-28 21:54:47.221958,0.00341796875,-0.0029296875,0.990234375,-0.0494384765625,0.3900146484375,-14.5074462890625
2021-09-28 21:54:47.231639,-0.00048828125,-0.00732421875,0.9892578125,-0.1043701171875,0.3900146484375,-14.5458984375
2021-09-28 21:54:47.242129,0.00048828125,-0.01025390625,0.9951171875,-0.164794921875,0.384521484375,-14.578857421875
2021-09-28 21:54:47.252099,-0.00146484375,-0.01025390625,0.9970703125,-0.230712890625,0.3680419921875,-14.6173095703125
2021-09-28 21:54:47.261886,-0.0009765625,-0.0068359375,1.00048828125,-0.3021240234375,0.3515625,-14.6502685546875
2021-09-28 21:54:47.271870,-0.00244140625,-0.0107421875,1.00439453125,-0.37353515625,0.3240966796875,-14.6832275390625
2021-09-28 21:54:47.281915,0.265625,0.044921875,1.1279296875,-0.4229736328125,0.1702880859375,-14.7216796875
2021-09-28 21:54:47.291635,-0.162109375,0.04345703125,0.84912109375,-0.46142578125,0.17578125,-14.798583984375
2021-09-28 21:54:47.301562,-0.01416015625,-0.16455078125,0.9228515625,-0.4339599609375,0.0439453125,-14.996337890625
2021-09-28 21:54:47.311661,0.16845703125,-0.01416015625,1.31982421875,-0.428466796875,-0.186767578125,-15.2764892578125
2021-09-28 21:54:47.321676,0.03662109375,-0.1552734375,0.8583984375,-0.4339599609375,-0.4229736328125,-15.5401611328125
2021-09-28 21:54:47.331675,-0.041015625,0.01611328125,0.90625,-0.4779052734375,-0.6097412109375,-15.732421875
2021-09-28 21:54:47.341485,0.005859375,0.048828125,0.72900390625,-0.4779052734375,-0.7196044921875,-15.79833984375
2021-09-28 21:54:47.351412,-0.05078125,0.06494140625,1.08349609375,-0.494384765625,-0.7470703125,-15.6719970703125
2021-09-28 21:54:47.361597,-0.146484375,-0.00341796875,0.9189453125,-0.494384765625,-0.758056640625,-15.44677734375
2021-09-28 21:54:47.371458,-0.203125,-0.0048828125,1.13916015625,-0.50537109375,-0.72509765625,-15.2325439453125
2021-09-28 21:54:47.381471,-0.15380859375,0.033203125,1.12841796875,-0.52734375,-0.6646728515625,-15.0732421875
2021-09-28 21:54:47.391432,-0.10009765625,0.0078125,0.99853515625,-0.615234375,-0.5548095703125,-15.0018310546875
2021-09-28 21:54:47.401251,0.15478515625,-0.00732421875,0.97607421875,-0.7196044921875,-0.516357421875,-14.9853515625
2021-09-28 21:54:47.411366,0.1337890625,0.1748046875,0.9873046875,-0.703125,-0.406494140625,-14.96337890625
2021-09-28 21:54:47.421208,-0.00341796875,0.03857421875,1.2841796875,-0.54931640625,-0.24169921875,-14.9688720703125
2021-09-28 21:54:47.431104,0.0283203125,0.00048828125,1.02880859375,-0.32958984375,-0.164794921875,-15.0677490234375
2021-09-28 21:54:47.441256,0.126953125,-0.09423828125,0.94091796875,-0.1922607421875,-0.06591796875,-15.281982421875
2021-09-28 21:54:47.451143,0.1953125,-0.0380859375,0.8916015625,-0.1263427734375,0.0384521484375,-15.5291748046875
2021-09-28 21:54:47.461104,0.060546875,-0.0390625,1.00146484375,-0.06591796875,0.1922607421875,-15.732421875
2021-09-28 21:54:47.471063,-0.07373046875,-0.08740234375,1.0126953125,0.0054931640625,0.3515625,-15.88623046875
2021-09-28 21:54:47.481054,0.009765625,0.0087890625,1.06494140625,0.0439453125,0.4779052734375,-16.0235595703125
2021-09-28 21:54:47.490721,0.04345703125,-0.00341796875,0.8974609375,0.087890625,0.5767822265625,-16.094970703125
2021-09-28 21:54:47.500909,-0.06396484375,-0.0439453125,0.8232421875,0.1483154296875,0.7415771484375,-16.1444091796875
2021-09-28 21:54:47.510899,-0.056640625,0.001953125,0.9140625,0.2362060546875,0.9228515625,-16.23779296875
2021-09-28 21:54:47.520952,-0.04150390625,0.04296875,0.8447265625,0.3515625,1.0986328125,-16.3751220703125
2021-09-28 21:54:47.530857,-0.0478515625,0.0234375,0.9892578125,0.50537109375,1.2579345703125,-16.50146484375
2021-09-28 21:54:47.540761,0.00341796875,-0.02294921875,1.03125,0.6536865234375,1.4117431640625,-16.58935546875
2021-09-28 21:54:47.550749,0.04443359375,0.009765625,1.21533203125,0.791015625,1.56005859375,-16.63330078125
2021-09-28 21:54:47.560824,-0.0205078125,0.04052734375,1.21533203125,0.889892578125,1.6754150390625,-16.5838623046875
2021-09-28 21:54:47.570690,-0.1416015625,-0.02978515625,0.84130859375,0.94482421875,1.8402099609375,-16.45751953125
2021-09-28 21:54:47.580683,-0.12646484375,-0.005859375,1.0185546875,0.9942626953125,1.9940185546875,-16.292724609375
2021-09-28 21:54:47.590786,-0.046875,0.056640625,1.2255859375,1.1260986328125,2.098388671875,-16.1004638671875
2021-09-28 21:54:47.601132,-0.08349609375,0.0458984375,0.9208984375,1.2359619140625,2.1917724609375,-15.853271484375
2021-09-28 21:54:47.610589,-0.06884765625,0.0341796875,1.12744140625,1.329345703125,2.2576904296875,-15.556640625
2021-09-28 21:54:47.620438,-0.060546875,0.0595703125,1.12744140625,1.38427734375,2.2906494140625,-15.205078125
2021-09-28 21:54:47.630420,-0.048828125,0.04296875,1.07177734375,1.3787841796875,2.2796630859375,-14.83154296875
2021-09-28 21:54:47.640330,-0.04443359375,0.03173828125,0.87060546875,1.318359375,2.2357177734375,-14.490966796875
2021-09-28 21:54:47.650353,-0.08251953125,0.03662109375,0.92919921875,1.2469482421875,2.21923828125,-14.2327880859375
2021-09-28 21:54:47.660423,-0.09228515625,0.07958984375,1.0322265625,1.1480712890625,2.1917724609375,-14.029541015625
2021-09-28 21:54:47.670428,-0.04296875,0.01904296875,0.84912109375,1.0382080078125,2.1368408203125,-13.831787109375
2021-09-28 21:54:47.680263,-0.0205078125,-0.0341796875,0.7841796875,0.889892578125,2.0654296875,-13.590087890625
2021-09-28 21:54:47.690304,-0.0078125,-0.01171875,0.96630859375,0.7196044921875,1.9720458984375,-13.304443359375
2021-09-28 21:54:47.700226,-0.01513671875,0.001953125,1.0791015625,0.5328369140625,1.8731689453125,-13.018798828125
2021-09-28 21:54:47.710196,-0.017578125,-0.021484375,0.94287109375,0.3350830078125,1.7578125,-12.7496337890625
2021-09-28 21:54:47.720047,0.0400390625,0.0009765625,0.97265625,0.120849609375,1.5985107421875,-12.535400390625
2021-09-28 21:54:47.730181,0.0654296875,0.03759765625,1.064453125,-0.076904296875,1.42822265625,-12.41455078125
2021-09-28 21:54:47.740100,0.0068359375,0.107421875,0.9453125,-0.2362060546875,1.285400390625,-12.37060546875
2021-09-28 21:54:47.750006,0.01171875,-0.05517578125,1.09228515625,-0.37353515625,1.1151123046875,-12.359619140625
2021-09-28 21:54:47.759852,0.04443359375,-0.01611328125,0.927734375,-0.5548095703125,0.9283447265625,-12.3651123046875
2021-09-28 21:54:47.769780,0.05078125,-0.02294921875,0.94287109375,-0.7305908203125,0.8294677734375,-12.45849609375
2021-09-28 21:54:47.779769,0.005859375,0.0302734375,0.92919921875,-0.8294677734375,0.76904296875,-12.6837158203125
2021-09-28 21:54:47.789840,0.02734375,-0.0146484375,0.9775390625,-0.8404541015625,0.714111328125,-12.98583984375
2021-09-28 21:54:47.799795,0.05908203125,-0.0458984375,0.921875,-0.8294677734375,0.6427001953125,-13.3209228515625
2021-09-28 21:54:47.809840,0.07080078125,-0.06591796875,0.88623046875,-0.823974609375,0.59326171875,-13.656005859375
2021-09-28 21:54:47.819727,0.01513671875,-0.0654296875,0.9052734375,-0.802001953125,0.59326171875,-13.9471435546875
2021-09-28 21:54:47.829722,-0.0185546875,-0.04052734375,0.8408203125,-0.736083984375,0.6317138671875,-14.1943359375
2021-09-28 21:54:47.839689,-0.04296875,-0.03125,0.93310546875,-0.615234375,0.703125,-14.4085693359375
2021-09-28 21:54:47.849564,-0.02783203125,-0.0322265625,0.884765625,-0.4559326171875,0.791015625,-14.622802734375
2021-09-28 21:54:47.859488,-0.0263671875,-0.03125,0.9375,-0.2801513671875,0.90087890625,-14.8590087890625
2021-09-28 21:54:47.869426,-0.06689453125,-0.02978515625,0.931640625,-0.1043701171875,1.043701171875,-15.106201171875
2021-09-28 21:54:47.879536,-0.06103515625,-0.02734375,0.93798828125,0.076904296875,1.197509765625,-15.3314208984375
2021-09-28 21:54:47.889493,-0.0361328125,-0.03662109375,1.0048828125,0.263671875,1.34033203125,-15.5072021484375
2021-09-28 21:54:47.899392,-0.00927734375,-0.013671875,1.15185546875,0.439453125,1.483154296875,-15.6500244140625
2021-09-28 21:54:47.909466,-0.05419921875,0.0478515625,1.27001953125,0.59326171875,1.6204833984375,-15.721435546875
2021-09-28 21:54:47.919228,-0.1572265625,-0.03125,0.87255859375,0.6756591796875,1.834716796875,-15.7049560546875
2021-09-28 21:54:47.929385,-0.1484375,-0.0068359375,1.04345703125,0.7305908203125,2.0379638671875,-15.655517578125
2021-09-28 21:54:47.939330,-0.080078125,0.04296875,1.2685546875,0.8074951171875,2.1917724609375,-15.5841064453125
2021-09-28 21:54:47.949263,-0.12744140625,0.0224609375,0.97119140625,0.8294677734375,2.3565673828125,-15.457763671875
2021-09-28 21:54:47.959319,-0.0849609375,0.0712890625,1.2216796875,0.8843994140625,2.4774169921875,-15.2764892578125
2021-09-28 21:54:47.969232,-0.0703125,0.068359375,1.17529296875,0.966796875,2.5213623046875,-15.040283203125
2021-09-28 21:54:47.979054,-0.0986328125,0.099609375,1.02197265625,1.0162353515625,2.5433349609375,-14.776611328125
2021-09-28 21:54:47.989085,0.06591796875,0.111328125,1.2421875,1.065673828125,2.4554443359375,-14.556884765625
2021-09-28 21:54:47.999058,0.03125,0.0263671875,0.97412109375,0.9228515625,2.230224609375,-14.381103515625
2021-09-28 21:54:48.008961,0.0537109375,-0.005859375,0.91650390625,0.7415771484375,1.8896484375,-14.2437744140625
2021-09-28 21:54:48.019047,0.08203125,0.03564453125,0.8671875,0.516357421875,1.5325927734375,-14.0625
2021-09-28 21:54:48.029052,-0.041015625,-0.037109375,0.84228515625,0.274658203125,1.241455078125,-13.809814453125
2021-09-28 21:54:48.038898,-0.16259765625,0.046875,1.12890625,0.0714111328125,1.0052490234375,-13.5186767578125
2021-09-28 21:54:48.048793,-0.04638671875,0.04638671875,0.90283203125,-0.076904296875,0.76904296875,-13.238525390625
2021-09-28 21:54:48.058875,0.01318359375,0.0087890625,0.9287109375,-0.2197265625,0.5548095703125,-12.9583740234375
2021-09-28 21:54:48.068783,0.05029296875,-0.05810546875,1.0595703125,-0.3515625,0.3460693359375,-12.733154296875
2021-09-28 21:54:48.078785,0.0888671875,0.00830078125,1.044921875,-0.4998779296875,0.1373291015625,-12.601318359375
2021-09-28 21:54:48.088694,0.09814453125,0.0712890625,0.95458984375,-0.5987548828125,-0.054931640625,-12.5299072265625
2021-09-28 21:54:48.099383,0.0478515625,-0.0498046875,1.13818359375,-0.6427001953125,-0.230712890625,-12.469482421875
2021-09-28 21:54:48.108932,0.064453125,-0.01953125,1.0166015625,-0.736083984375,-0.406494140625,-12.425537109375
2021-09-28 21:54:48.118683,0.09423828125,-0.0517578125,0.88720703125,-0.87890625,-0.516357421875,-12.469482421875
2021-09-28 21:54:48.128563,0.05712890625,0.03173828125,0.958984375,-0.933837890625,-0.5767822265625,-12.6397705078125
2021-09-28 21:54:48.138508,0.03759765625,-0.0107421875,0.96875,-0.8953857421875,-0.5987548828125,-12.8704833984375
2021-09-28 21:54:48.148416,0.05322265625,-0.02392578125,0.92578125,-0.8294677734375,-0.5877685546875,-13.1396484375
2021-09-28 21:54:48.158473,0.05517578125,-0.048828125,0.8896484375,-0.76904296875,-0.5328369140625,-13.42529296875
2021-09-28 21:54:48.168404,0.02783203125,-0.0419921875,0.875,-0.670166015625,-0.4229736328125,-13.6834716796875
2021-09-28 21:54:48.178313,-0.0078125,-0.02734375,0.8828125,-0.5438232421875,-0.263671875,-13.897705078125
2021-09-28 21:54:48.188281,-0.02685546875,-0.0419921875,0.93359375,-0.4010009765625,-0.0714111328125,-14.0899658203125
2021-09-28 21:54:48.198412,-0.0322265625,-0.03564453125,0.9208984375,-0.2471923828125,0.1373291015625,-14.2877197265625
2021-09-28 21:54:48.208347,-0.04443359375,-0.02294921875,0.95849609375,-0.098876953125,0.3680419921875,-14.5294189453125
2021-09-28 21:54:48.218209,-0.08349609375,-0.01513671875,0.92041015625,0.032958984375,0.6207275390625,-14.78759765625
2021-09-28 21:54:48.228138,-0.07275390625,0.0,0.92431640625,0.1702880859375,0.87890625,-15.05126953125
2021-09-28 21:54:48.238192,-0.0517578125,-0.0068359375,1.005859375,0.296630859375,1.1260986328125,-15.281982421875
2021-09-28 21:54:48.248348,-0.03759765625,-0.037109375,1.07666015625,0.3680419921875,1.3677978515625,-15.479736328125
2021-09-28 21:54:48.258220,-0.09716796875,0.11328125,1.35888671875,0.472412109375,1.6204833984375,-15.6170654296875
2021-09-28 21:54:48.268080,-0.1611328125,0.02001953125,0.90625,0.6317138671875,1.856689453125,-15.6500244140625
2021-09-28 21:54:48.278028,-0.15576171875,0.06884765625,1.1005859375,0.7965087890625,2.04345703125,-15.6170654296875
2021-09-28 21:54:48.287951,-0.09765625,0.083984375,1.08935546875,1.07666015625,2.186279296875,-15.5511474609375
2021-09-28 21:54:48.298002,-0.083984375,0.1357421875,1.1767578125,1.3787841796875,2.2576904296875,-15.4193115234375
2021-09-28 21:54:48.307896,-0.06884765625,0.06396484375,1.0703125,1.7193603515625,2.274169921875,-15.18310546875
2021-09-28 21:54:48.317812,-0.15234375,0.12060546875,0.91748046875,2.0489501953125,2.3016357421875,-14.9029541015625
2021-09-28 21:54:48.327708,0.060546875,0.05908203125,1.15478515625,2.1917724609375,2.1368408203125,-14.6282958984375
2021-09-28 21:54:48.337692,0.015625,-0.02880859375,0.97900390625,2.0709228515625,1.8841552734375,-14.3646240234375
2021-09-28 21:54:48.347796,0.09814453125,-0.009765625,0.8935546875,1.7578125,1.4556884765625,-14.183349609375
2021-09-28 21:54:48.357679,0.09716796875,0.0126953125,1.00634765625,1.241455078125,0.966796875,-14.051513671875
2021-09-28 21:54:48.367553,0.01904296875,-0.0126953125,0.64404296875,0.7196044921875,0.472412109375,-13.897705078125
2021-09-28 21:54:48.377815,-0.09521484375,-0.02001953125,0.88427734375,0.1922607421875,0.0823974609375,-13.677978515625
2021-09-28 21:54:48.387787,-0.0830078125,0.02099609375,0.81494140625,-0.2801513671875,-0.28564453125,-13.4417724609375
2021-09-28 21:54:48.397753,0.00439453125,0.01513671875,0.93505859375,-0.6866455078125,-0.6427001953125,-13.2330322265625
2021-09-28 21:54:48.407549,0.05126953125,-0.0107421875,0.8408203125,-1.021728515625,-0.98876953125,-13.0023193359375
2021-09-28 21:54:48.417449,0.0517578125,-0.07568359375,1.28857421875,-1.16455078125,-1.197509765625,-12.821044921875
2021-09-28 21:54:48.427336,0.05615234375,-0.044921875,1.4111328125,-1.12060546875,-1.1920166015625,-12.6947021484375
2021-09-28 21:54:48.437455,0.13330078125,-0.0234375,0.9765625,-0.94482421875,-1.1041259765625,-12.579345703125
2021-09-28 21:54:48.447368,0.04150390625,-0.04296875,0.97216796875,-0.72509765625,-0.9228515625,-12.4639892578125
2021-09-28 21:54:48.457342,0.001953125,-0.01318359375,0.99365234375,-0.46142578125,-0.7965087890625,-12.392578125
2021-09-28 21:54:48.467200,0.02294921875,-0.03271484375,0.98828125,-0.274658203125,-0.604248046875,-12.4420166015625
2021-09-28 21:54:48.477269,0.0263671875,0.05859375,0.94970703125,-0.076904296875,-0.3680419921875,-12.6287841796875
2021-09-28 21:54:48.487242,-0.01025390625,0.02490234375,0.91357421875,0.15380859375,-0.098876953125,-12.94189453125
2021-09-28 21:54:48.497141,0.0322265625,0.01611328125,0.89697265625,0.41748046875,0.142822265625,-13.33740234375
2021-09-28 21:54:48.507204,0.04638671875,-0.0537109375,0.86328125,0.5987548828125,0.406494140625,-13.7548828125
2021-09-28 21:54:48.517187,0.05322265625,-0.02783203125,0.8330078125,0.7305908203125,0.6646728515625,-14.1668701171875
2021-09-28 21:54:48.527248,0.00244140625,-0.0283203125,0.9326171875,0.8349609375,0.9283447265625,-14.5733642578125
2021-09-28 21:54:48.537189,-0.02490234375,-0.0986328125,0.94921875,0.85693359375,1.1920166015625,-14.96337890625
2021-09-28 21:54:48.547187,-0.02490234375,-0.001953125,1.0498046875,0.7470703125,1.373291015625,-15.347900390625
2021-09-28 21:54:48.557122,-0.0595703125,-0.044921875,0.78564453125,0.538330078125,1.505126953125,-15.787353515625
2021-09-28 21:54:48.566909,-0.044921875,-0.0068359375,0.841796875,0.2801513671875,1.60400390625,-16.314697265625
2021-09-28 21:54:48.576927,0.03173828125,-0.00439453125,0.70166015625,0.0,1.6534423828125,-16.8475341796875
2021-09-28 21:54:48.586825,0.0556640625,-0.06982421875,1.07470703125,-0.2691650390625,1.7193603515625,-17.3089599609375
2021-09-28 21:54:48.597100,-0.02392578125,-0.01513671875,1.0712890625,-0.3900146484375,1.82373046875,-17.68798828125
2021-09-28 21:54:48.606675,-0.05712890625,0.04248046875,1.17431640625,-0.3240966796875,1.878662109375,-17.9681396484375
2021-09-28 21:54:48.616841,-0.119140625,0.1025390625,1.22998046875,-0.1593017578125,1.856689453125,-18.0889892578125
2021-09-28 21:54:48.626734,-0.13232421875,0.0546875,0.806640625,0.1593017578125,1.8182373046875,-18.08349609375
2021-09-28 21:54:48.636630,-0.0654296875,0.04345703125,0.91455078125,0.5877685546875,1.724853515625,-17.9901123046875
2021-09-28 21:54:48.646524,-0.078125,0.0595703125,1.2275390625,1.0491943359375,1.593017578125,-17.852783203125
2021-09-28 21:54:48.656456,-0.091796875,-0.0087890625,0.86328125,1.4556884765625,1.42822265625,-17.64404296875
2021-09-28 21:54:48.666550,-0.109375,-0.04443359375,0.76220703125,1.69189453125,1.23046875,-17.413330078125
2021-09-28 21:54:48.676642,-0.09912109375,-0.03125,1.380859375,1.7083740234375,0.98876953125,-17.2265625
2021-09-28 21:54:48.686578,-0.03662109375,-0.03466796875,0.87353515625,1.307373046875,0.6976318359375,-17.0782470703125
2021-09-28 21:54:48.696527,-0.00048828125,-0.00830078125,1.07861328125,0.7415771484375,0.3515625,-16.995849609375
2021-09-28 21:54:48.706527,0.0966796875,0.00537109375,0.5732421875,0.1373291015625,-0.2471923828125,-16.98486328125
2021-09-28 21:54:48.716396,-0.08740234375,0.17724609375,1.9765625,-0.1593017578125,-0.76904296875,-16.9189453125
2021-09-28 21:54:48.726387,-0.03564453125,0.06494140625,1.19482421875,-0.230712890625,-1.0601806640625,-16.6937255859375
2021-09-28 21:54:48.736224,-0.04052734375,0.0263671875,1.03564453125,-0.37353515625,-1.0491943359375,-16.3861083984375
2021-09-28 21:54:48.746231,-0.0478515625,-0.1103515625,0.47509765625,-0.2252197265625,-0.823974609375,-16.14990234375
2021-09-28 21:54:48.756023,0.076171875,-0.1953125,0.95068359375,-0.2032470703125,-0.6207275390625,-16.029052734375
2021-09-28 21:54:48.766018,0.068359375,0.068359375,1.42431640625,-0.538330078125,-0.5438232421875,-15.9246826171875
2021-09-28 21:54:48.776023,0.1142578125,0.08349609375,1.2646484375,-0.6317138671875,-0.439453125,-15.831298828125
2021-09-28 21:54:48.786037,0.05908203125,0.0986328125,1.6376953125,-0.6646728515625,-0.2142333984375,-15.62255859375
2021-09-28 21:54:48.796022,0.103515625,0.16064453125,1.40087890625,-0.8074951171875,-0.0714111328125,-15.18310546875
2021-09-28 21:54:48.805894,0.01806640625,0.0830078125,0.96484375,-0.9503173828125,0.032958984375,-14.501953125
2021-09-28 21:54:48.815726,0.0205078125,-0.05078125,0.7685546875,-1.0382080078125,0.2197265625,-13.6834716796875
2021-09-28 21:54:48.826027,0.0673828125,0.013671875,0.6123046875,-1.219482421875,0.4669189453125,-12.7935791015625
2021-09-28 21:54:48.836019,0.02734375,0.03271484375,0.48779296875,-1.40625,0.670166015625,-11.810302734375
2021-09-28 21:54:48.845898,-0.13720703125,-0.1708984375,0.2490234375,-1.494140625,0.845947265625,-10.78857421875
2021-09-28 21:54:48.856096,0.23046875,-0.1884765625,1.04443359375,-1.56005859375,1.0931396484375,-9.73388671875
2021-09-28 21:54:48.865811,0.23828125,-0.23046875,0.208984375,-1.2689208984375,1.2579345703125,-8.756103515625
2021-09-28 21:54:48.875912,0.17041015625,-0.23828125,0.8349609375,-0.90087890625,1.03271484375,-7.8826904296875
2021-09-28 21:54:48.885574,-0.00830078125,-0.142578125,1.11083984375,-0.6591796875,0.439453125,-7.1575927734375
2021-09-28 21:54:48.895772,0.01806640625,-0.36376953125,1.35595703125,-0.1483154296875,-0.32958984375,-6.7181396484375
2021-09-28 21:54:48.905664,-0.2041015625,-0.0703125,1.45751953125,0.0714111328125,-0.8734130859375,-6.668701171875
2021-09-28 21:54:48.915582,-0.0341796875,-0.05859375,1.6572265625,0.1043701171875,-1.0711669921875,-7.130126953125
2021-09-28 21:54:48.925491,0.22021484375,0.01708984375,0.84423828125,0.02197265625,-0.90087890625,-7.998046875
2021-09-28 21:54:48.935463,-0.0107421875,-0.0458984375,0.80029296875,-0.087890625,-0.6646728515625,-9.07470703125
2021-09-28 21:54:48.945323,-0.35693359375,0.00146484375,0.2734375,-0.384521484375,-0.5877685546875,-10.1513671875
2021-09-28 21:54:48.955678,-0.361328125,0.123046875,0.35986328125,-0.5328369140625,-0.6317138671875,-11.129150390625
2021-09-28 21:54:48.965637,-0.103515625,0.14892578125,0.38525390625,-0.3076171875,-0.5987548828125,-11.88720703125
2021-09-28 21:54:48.975662,0.3828125,0.2080078125,1.03955078125,-0.1483154296875,-0.450439453125,-12.381591796875
2021-09-28 21:54:48.985496,0.248046875,0.15771484375,1.31201171875,-0.208740234375,-0.1483154296875,-12.535400390625
2021-09-28 21:54:48.995273,0.0830078125,-0.0146484375,1.25927734375,-0.1812744140625,-0.054931640625,-12.2222900390625
2021-09-28 21:54:49.005279,0.02978515625,0.17138671875,2.435546875,0.054931640625,-0.0494384765625,-11.524658203125
2021-09-28 21:54:49.015357,0.0498046875,-0.1591796875,2.0185546875,-0.0164794921875,-0.0714111328125,-10.667724609375
2021-09-28 21:54:49.025214,-0.20703125,0.2275390625,1.76025390625,0.0054931640625,-0.1043701171875,-9.766845703125
2021-09-28 21:54:49.035141,-0.15234375,0.00927734375,1.431640625,0.1318359375,-0.17578125,-8.9923095703125
2021-09-28 21:54:49.044725,-0.0849609375,0.05517578125,0.82666015625,0.208740234375,-0.1373291015625,-8.349609375
2021-09-28 21:54:49.054956,-0.00927734375,0.05908203125,0.771484375,0.230712890625,-0.0439453125,-7.8497314453125
2021-09-28 21:54:49.065044,-0.0068359375,0.02978515625,0.56982421875,0.296630859375,-0.010986328125,-7.4102783203125
2021-09-28 21:54:49.075014,-0.02734375,-0.0400390625,0.37060546875,0.3680419921875,-0.0494384765625,-6.9049072265625
2021-09-28 21:54:49.085009,0.00439453125,-0.01611328125,0.2314453125,0.362548828125,-0.1373291015625,-6.251220703125
2021-09-28 21:54:49.095519,0.0185546875,-0.01904296875,0.08984375,0.3515625,-0.2911376953125,-5.504150390625
2021-09-28 21:54:49.104823,-0.01123046875,0.00244140625,0.17626953125,0.3900146484375,-0.406494140625,-4.844970703125
2021-09-28 21:54:49.115017,-0.0126953125,-0.0908203125,1.0751953125,0.54931640625,-0.4339599609375,-4.405517578125
2021-09-28 21:54:49.124982,0.0341796875,-0.01806640625,1.521484375,0.63720703125,-0.4669189453125,-4.1693115234375
2021-09-28 21:54:49.134848,0.05712890625,0.1201171875,1.68505859375,0.63720703125,-0.5218505859375,-3.9935302734375
2021-09-28 21:54:49.144634,0.00390625,0.072265625,2.4443359375,0.736083984375,-0.582275390625,-3.6309814453125
2021-09-28 21:54:49.154753,-0.0458984375,-0.04248046875,1.50830078125,0.802001953125,-0.6866455078125,-2.9827880859375
2021-09-28 21:54:49.164657,-0.03173828125,-0.005859375,1.38134765625,0.758056640625,-0.758056640625,-2.13134765625
2021-09-28 21:54:49.174560,-0.0126953125,0.02392578125,0.8203125,0.7525634765625,-0.7415771484375,-1.1810302734375
2021-09-28 21:54:49.184575,0.021484375,0.02392578125,0.7841796875,0.736083984375,-0.7470703125,-0.1263427734375
2021-09-28 21:54:49.194405,-0.015625,-0.013671875,0.5087890625,0.692138671875,-0.81298828125,1.03271484375
2021-09-28 21:54:49.204530,0.0546875,-0.02392578125,-0.0830078125,-163.916015625,-0.8953857421875,2.2686767578125
2021-09-28 21:54:49.214634,-0.330078125,-0.17431640625,-0.14208984375,-163.9984130859375,-0.6207275390625,1.0491943359375
2021-09-28 21:54:49.224777,0.0224609375,0.13037109375,1.15673828125,6.427001953125,-0.5712890625,-0.0494384765625
2021-09-28 21:54:49.234483,0.12255859375,0.1494140625,0.31494140625,6.3555908203125,-0.362548828125,0.7196044921875
2021-09-28 21:54:49.244589,0.05810546875,-0.0361328125,1.59130859375,6.4324951171875,-0.252685546875,1.0382080078125
2021-09-28 21:54:49.254275,-0.068359375,0.00048828125,1.8681640625,6.3555908203125,-0.2471923828125,0.7415771484375
2021-09-28 21:54:49.264457,-0.00830078125,0.03857421875,1.919921875,6.3665771484375,-0.2581787109375,-0.164794921875
2021-09-28 21:54:49.274268,-0.00634765625,0.0,1.162109375,6.383056640625,-0.1702880859375,-1.4776611328125
2021-09-28 21:54:49.284113,0.00830078125,0.0029296875,0.7080078125,6.2896728515625,-0.0823974609375,-2.867431640625
2021-09-28 21:54:49.294199,-0.1240234375,-0.013671875,0.1943359375,6.1578369140625,-0.054931640625,-4.21875
2021-09-28 21:54:49.304265,-0.1357421875,0.06982421875,-0.09765625,6.075439453125,-0.076904296875,-5.482177734375
2021-09-28 21:54:49.314377,0.07275390625,0.1171875,0.53369140625,6.1358642578125,-0.0384521484375,-6.4764404296875
2021-09-28 21:54:49.324060,0.32421875,0.015625,0.744140625,6.1688232421875,-0.010986328125,-7.14111328125
2021-09-28 21:54:49.334074,0.193359375,0.0380859375,1.19287109375,6.0699462890625,-0.032958984375,-7.4871826171875
2021-09-28 21:54:49.343596,0.21484375,0.14697265625,1.19384765625,5.987548828125,-0.208740234375,-7.4432373046875
2021-09-28 21:54:49.353853,0.02001953125,0.2548828125,1.5263671875,6.1029052734375,-0.4010009765625,-6.9488525390625
2021-09-28 21:54:49.363868,0.0224609375,0.18798828125,1.73095703125,6.13037109375,-0.450439453125,-6.1029052734375
2021-09-28 21:54:49.373938,-0.04833984375,0.123046875,1.8935546875,6.1688232421875,-0.4229736328125,-5.130615234375
2021-09-28 21:54:49.383880,-0.05712890625,-0.08447265625,1.6416015625,6.3995361328125,-0.406494140625,-4.229736328125
2021-09-28 21:54:49.393752,-0.021484375,-0.1455078125,1.45263671875,6.56982421875,-0.340576171875,-3.5101318359375
2021-09-28 21:54:49.403725,0.05859375,-0.1357421875,0.7392578125,6.65771484375,-0.2581787109375,-2.9827880859375
2021-09-28 21:54:49.413690,0.052734375,-0.11083984375,0.81884765625,6.7071533203125,-0.2691650390625,-2.5543212890625
2021-09-28 21:54:49.423731,-0.00341796875,-0.0654296875,0.50439453125,6.690673828125,-0.3570556640625,-2.0928955078125
2021-09-28 21:54:49.433735,-0.06787109375,-0.0390625,0.3154296875,6.6741943359375,-0.50537109375,-1.461181640625
2021-09-28 21:54:49.443582,0.0,-0.0224609375,0.0810546875,6.646728515625,-0.6591796875,-0.692138671875
2021-09-28 21:54:49.453011,0.01806640625,0.0673828125,0.06689453125,6.61376953125,-0.7196044921875,0.0274658203125
2021-09-28 21:54:49.463643,0.0107421875,0.01171875,0.9326171875,6.7291259765625,-0.72509765625,0.5438232421875
2021-09-28 21:54:49.473527,0.00537109375,0.01806640625,1.42626953125,6.822509765625,-0.7855224609375,0.8184814453125
2021-09-28 21:54:49.483436,-0.02880859375,0.16845703125,1.419921875,6.800537109375,-0.8843994140625,0.999755859375
2021-09-28 21:54:49.493341,-0.0283203125,0.03076171875,2.43017578125,6.9049072265625,-0.9613037109375,1.3238525390625
2021-09-28 21:54:49.503416,-0.0146484375,-0.05078125,1.59033203125,6.9378662109375,-1.0711669921875,1.9171142578125
2021-09-28 21:54:49.513392,0.0439453125,0.0078125,1.40234375,6.87744140625,-1.16455078125,2.7410888671875
2021-09-28 21:54:49.523219,-0.02001953125,0.01025390625,1.01220703125,6.9049072265625,-1.23046875,3.680419921875
2021-09-28 21:54:49.533236,-0.0595703125,0.02880859375,0.82275390625,6.8609619140625,-1.34033203125,4.713134765625
2021-09-28 21:54:49.543060,-0.056640625,0.01611328125,0.5419921875,6.74560546875,-1.4666748046875,5.8502197265625
2021-09-28 21:54:49.553091,-0.0087890625,-0.099609375,0.416015625,6.6961669921875,-1.58203125,7.0751953125
2021-09-28 21:54:49.563364,-0.01318359375,-0.05029296875,0.3369140625,6.5478515625,-1.5435791015625,8.3056640625
2021-09-28 21:54:49.573128,0.01025390625,0.02197265625,0.26416015625,6.4215087890625,-1.4117431640625,9.305419921875
2021-09-28 21:54:49.583067,0.1455078125,-0.02587890625,1.08056640625,6.43798828125,-1.2908935546875,9.964599609375
2021-09-28 21:54:49.593630,-0.02490234375,-0.0546875,1.39794921875,6.4764404296875,-1.219482421875,10.162353515625
2021-09-28 21:54:49.602881,-0.03857421875,0.02294921875,1.61279296875,6.4324951171875,-1.1920166015625,9.7723388671875
2021-09-28 21:54:49.613040,-0.03759765625,0.0146484375,1.658203125,6.5203857421875,-1.1260986328125,8.8275146484375
2021-09-28 21:54:49.622841,0.02197265625,-0.029296875,1.1123046875,6.5478515625,-1.0052490234375,7.5640869140625
2021-09-28 21:54:49.632820,-0.04296875,-0.06298828125,0.734375,6.48193359375,-0.9283447265625,6.2567138671875
2021-09-28 21:54:49.642692,-0.14208984375,-0.01953125,0.3623046875,6.3555908203125,-0.9173583984375,5.0042724609375
2021-09-28 21:54:49.652885,-0.15087890625,0.0693359375,0.1220703125,6.2457275390625,-0.9613037109375,3.856201171875
2021-09-28 21:54:49.663001,0.07763671875,0.09619140625,0.57861328125,6.295166015625,-0.955810546875,3.0157470703125
2021-09-28 21:54:49.672693,0.30029296875,0.0576171875,0.88037109375,6.2786865234375,-0.977783203125,2.57080078125
2021-09-28 21:54:49.682755,0.15869140625,0.0263671875,1.04150390625,6.185302734375,-1.03271484375,2.493896484375
2021-09-28 21:54:49.692560,0.20263671875,0.08544921875,1.26904296875,6.119384765625,-1.2359619140625,2.7850341796875
2021-09-28 21:54:49.702831,0.1376953125,0.3701171875,1.7587890625,6.295166015625,-1.4007568359375,3.438720703125
2021-09-28 21:54:49.712661,0.0419921875,0.2109375,2.26318359375,6.361083984375,-1.417236328125,4.3450927734375
2021-09-28 21:54:49.722668,0.0419921875,0.2109375,2.26318359375,6.427001953125,-1.439208984375,5.2569580078125
2021-09-28 21:54:49.732603,-0.03515625,-0.03564453125,1.6943359375,6.4654541015625,-1.4447021484375,6.240234375
2021-09-28 21:54:49.742504,-0.1298828125,-0.17919921875,1.44384765625,6.668701171875,-1.4501953125,7.1246337890625
2021-09-28 21:54:49.752358,-0.06982421875,-0.15234375,1.40576171875,6.8170166015625,-1.4556884765625,7.811279296875
2021-09-28 21:54:49.762358,-0.0087890625,-0.1337890625,0.833984375,6.87744140625,-1.417236328125,8.3111572265625
2021-09-28 21:54:49.772247,0.02685546875,-0.1044921875,0.6611328125,6.85546875,-1.4337158203125,8.7176513671875
2021-09-28 21:54:49.782202,-0.0244140625,-0.048828125,0.55029296875,6.8170166015625,-1.5106201171875,9.1680908203125
2021-09-28 21:54:49.792267,-0.09375,-0.0498046875,0.3779296875,6.8170166015625,-1.64794921875,9.788818359375
2021-09-28 21:54:49.802200,-0.0009765625,-0.02392578125,0.10986328125,6.778564453125,-1.7852783203125,10.5523681640625
2021-09-28 21:54:49.812162,0.02099609375,0.07177734375,0.0703125,6.7181396484375,-1.834716796875,11.282958984375
2021-09-28 21:54:49.822228,0.021484375,0.01318359375,0.86572265625,6.800537109375,-1.834716796875,11.810302734375
2021-09-28 21:54:49.832060,0.00732421875,0.01318359375,1.42578125,6.8939208984375,-1.8731689453125,12.1014404296875
2021-09-28 21:54:49.842119,-0.0185546875,0.134765625,1.45458984375,6.87744140625,-1.95556640625,12.293701171875
2021-09-28 21:54:49.852126,-0.044921875,0.05322265625,2.41259765625,6.932373046875,-1.99951171875,12.6123046875
2021-09-28 21:54:49.862247,-0.02587890625,-0.046875,1.6376953125,6.9708251953125,-2.076416015625,13.1890869140625
2021-09-28 21:54:49.872067,0.0400390625,-0.01220703125,1.47265625,6.8829345703125,-2.1478271484375,13.99658203125
2021-09-28 21:54:49.882038,0.0078125,-0.0107421875,0.97119140625,6.8719482421875,-2.197265625,14.930419921875
2021-09-28 21:54:49.891801,-0.03125,0.01171875,0.78857421875,6.8280029296875,-2.2906494140625,15.9686279296875
2021-09-28 21:54:49.901795,-0.041015625,0.01025390625,0.5078125,6.712646484375,-2.4114990234375,17.11669921875
2021-09-28 21:54:49.911653,-0.00341796875,-0.1298828125,0.2763671875,6.6357421875,-2.537841796875,18.3526611328125
2021-09-28 21:54:49.921969,0.09375,-0.091796875,0.357421875,6.4984130859375,-2.537841796875,19.5941162109375
2021-09-28 21:54:49.931703,-0.009765625,-0.078125,0.30615234375,6.3665771484375,-2.4774169921875,20.599365234375
2021-09-28 21:54:49.941653,0.05517578125,-0.0546875,0.79296875,6.3555908203125,-2.427978515625,21.24755859375
2021-09-28 21:54:49.951601,-0.0537109375,0.01416015625,1.416015625,6.3775634765625,-2.4005126953125,21.4178466796875
2021-09-28 21:54:49.961626,-0.0556640625,0.03076171875,1.6396484375,6.3555908203125,-2.35107421875,20.9783935546875
2021-09-28 21:54:49.971523,-0.02490234375,0.00732421875,1.59912109375,6.448974609375,-2.252197265625,19.9896240234375
2021-09-28 21:54:49.981593,0.033203125,-0.00732421875,1.10107421875,6.48193359375,-2.13134765625,18.69873046875
2021-09-28 21:54:49.991579,-0.03125,-0.05615234375,0.68798828125,6.448974609375,-2.0654296875,17.391357421875
2021-09-28 21:54:50.001468,-0.11083984375,-0.03564453125,0.3408203125,6.35009765625,-2.0709228515625,16.1224365234375
2021-09-28 21:54:50.011471,-0.12109375,0.0751953125,0.0244140625,6.2677001953125,-2.13134765625,14.9468994140625
2021-09-28 21:54:50.021542,0.10693359375,0.072265625,0.53955078125,6.3336181640625,-2.13134765625,14.0899658203125
2021-09-28 21:54:50.031268,0.31298828125,0.02490234375,0.9248046875,6.30615234375,-2.142333984375,13.634033203125
2021-09-28 21:54:50.041366,0.16357421875,0.00830078125,1.033203125,6.207275390625,-2.197265625,13.5296630859375
2021-09-28 21:54:50.051260,0.20947265625,0.09912109375,1.2626953125,6.1248779296875,-2.4114990234375,13.787841796875
2021-09-28 21:54:50.061299,0.158203125,0.34130859375,1.78955078125,6.295166015625,-2.5872802734375,14.4140625
2021-09-28 21:54:50.071166,0.02978515625,0.26123046875,2.1162109375,6.361083984375,-2.581787109375,15.325927734375
2021-09-28 21:54:50.081215,-0.1162109375,0.04150390625,1.76708984375,6.383056640625,-2.559814453125,16.336669921875
2021-09-28 21:54:50.091686,-0.158203125,-0.158203125,1.47314453125,6.602783203125,-2.52685546875,17.259521484375
2021-09-28 21:54:50.100949,-0.07470703125,-0.22216796875,1.39404296875,6.7291259765625,-2.5213623046875,17.984619140625
2021-09-28 21:54:50.111095,-0.00341796875,-0.1708984375,0.81103515625,6.7840576171875,-2.4664306640625,18.5009765625
2021-09-28 21:54:50.121172,0.0224609375,-0.10986328125,0.669921875,6.756591796875,-2.48291015625,18.9019775390625
2021-09-28 21:54:50.131036,-0.013671875,-0.04248046875,0.56005859375,6.712646484375,-2.5543212890625,19.346923828125
2021-09-28 21:54:50.141096,-0.08544921875,-0.056640625,0.3779296875,6.6961669921875,-2.691650390625,19.951171875
2021-09-28 21:54:50.150884,0.00830078125,-0.029296875,0.099609375,6.6412353515625,-2.83447265625,20.7147216796875
2021-09-28 21:54:50.160899,0.02587890625,0.07373046875,0.09033203125,6.558837890625,-2.900390625,21.4508056640625
2021-09-28 21:54:50.170723,0.01708984375,0.0146484375,0.84375,6.6192626953125,-2.92236328125,21.9891357421875
2021-09-28 21:54:50.180424,0.02099609375,0.0185546875,1.40673828125,6.7071533203125,-2.9718017578125,22.2967529296875
2021-09-28 21:54:50.190485,-0.00830078125,0.11181640625,1.52880859375,6.712646484375,-3.0706787109375,22.489013671875
2021-09-28 21:54:50.200426,-0.0458984375,0.068359375,2.39111328125,6.7620849609375,-3.1365966796875,22.8021240234375
2021-09-28 21:54:50.210418,-0.02783203125,-0.04345703125,1.67041015625,6.8280029296875,-3.218994140625,23.367919921875
2021-09-28 21:54:50.220591,0.0390625,0.0,1.42431640625,6.7510986328125,-3.31787109375,24.1754150390625
2021-09-28 21:54:50.230130,-0.0205078125,-0.0224609375,1.03759765625,6.7401123046875,-3.3782958984375,25.103759765625
2021-09-28 21:54:50.240300,-0.05224609375,0.0107421875,0.8427734375,6.668701171875,-3.4716796875,26.1309814453125
2021-09-28 21:54:50.250223,-0.05908203125,0.01513671875,0.54296875,6.514892578125,-3.5760498046875,27.257080078125
2021-09-28 21:54:50.260129,0.0029296875,-0.09423828125,0.34912109375,6.4105224609375,-3.6859130859375,28.465576171875
2021-09-28 21:54:50.270212,-0.06884765625,-0.046875,0.31982421875,6.207275390625,-3.636474609375,29.696044921875
2021-09-28 21:54:50.280310,0.02587890625,0.0537109375,0.41748046875,6.0150146484375,-3.5321044921875,30.7122802734375
2021-09-28 21:54:50.290212,0.2001953125,-0.044921875,1.060546875,6.0040283203125,-3.4552001953125,31.4044189453125
2021-09-28 21:54:50.300045,-0.02880859375,-0.068359375,1.40478515625,6.0260009765625,-3.416748046875,31.6571044921875
2021-09-28 21:54:50.309907,-0.025390625,0.0234375,1.65478515625,5.9765625,-3.4002685546875,31.31103515625
2021-09-28 21:54:50.319988,-0.037109375,0.00341796875,1.6875,6.1029052734375,-3.328857421875,30.3936767578125
2021-09-28 21:54:50.329936,0.02294921875,-0.033203125,1.15185546875,6.1688232421875,-3.2080078125,29.1192626953125
2021-09-28 21:54:50.339826,-0.0478515625,-0.0380859375,0.80322265625,6.1468505859375,-3.1365966796875,27.79541015625
2021-09-28 21:54:50.350066,-0.1455078125,-0.0166015625,0.361328125,6.075439453125,-3.1256103515625,26.5264892578125
2021-09-28 21:54:50.359949,-0.13232421875,0.080078125,0.1064453125,6.031494140625,-3.1585693359375,25.3509521484375
2021-09-28 21:54:50.370010,0.0771484375,0.0859375,0.55859375,6.13037109375,-3.1365966796875,24.4720458984375
2021-09-28 21:54:50.379757,0.26904296875,0.05126953125,0.791015625,6.15234375,-3.131103515625,23.994140625
2021-09-28 21:54:50.389837,0.12841796875,0.03857421875,1.05712890625,6.0919189453125,-3.153076171875,23.8677978515625
2021-09-28 21:54:50.399567,0.166015625,0.1396484375,1.326171875,6.0150146484375,-3.2958984375,24.114990234375
2021-09-28 21:54:50.409705,0.146484375,0.2412109375,1.69189453125,6.1138916015625,-3.4552001953125,24.7686767578125
2021-09-28 21:54:50.419685,0.0986328125,0.2177734375,1.9599609375,6.1248779296875,-3.5211181640625,25.7080078125
2021-09-28 21:54:50.429574,0.00439453125,-0.02392578125,1.693359375,6.13037109375,-3.5321044921875,26.7132568359375
2021-09-28 21:54:50.439637,-0.0341796875,-0.06982421875,1.56640625,6.273193359375,-3.5650634765625,27.6031494140625
2021-09-28 21:54:50.449513,-0.02978515625,-0.115234375,1.46044921875,6.4105224609375,-3.548583984375,28.289794921875
2021-09-28 21:54:50.459457,0.0400390625,-0.08837890625,0.72265625,6.4544677734375,-3.526611328125,28.795166015625
2021-09-28 21:54:50.469396,0.04833984375,-0.095703125,0.80322265625,6.4215087890625,-3.548583984375,29.1961669921875
2021-09-28 21:54:50.479646,-0.005859375,-0.04833984375,0.52587890625,6.3446044921875,-3.6199951171875,29.6356201171875
2021-09-28 21:54:50.489471,-0.10498046875,-0.0185546875,0.42333984375,6.3226318359375,-3.7518310546875,30.2398681640625
2021-09-28 21:54:50.499364,-0.02783203125,-0.0146484375,0.1962890625,6.2841796875,-3.8836669921875,31.00341796875
2021-09-28 21:54:50.509232,0.00341796875,0.07421875,0.0927734375,6.1962890625,-3.922119140625,31.75048828125
2021-09-28 21:54:50.519314,0.01416015625,0.03076171875,0.74609375,6.26220703125,-3.9111328125,32.32177734375
2021-09-28 21:54:50.529096,0.0185546875,0.015625,1.34423828125,6.361083984375,-3.944091796875,32.6513671875
2021-09-28 21:54:50.539220,-0.02099609375,0.1103515625,1.5087890625,6.3555908203125,-4.04296875,32.860107421875
2021-09-28 21:54:50.549426,-0.06298828125,0.0732421875,2.2958984375,6.416015625,-4.1033935546875,33.1622314453125
2021-09-28 21:54:50.559192,-0.03125,-0.04150390625,1.6787109375,6.48193359375,-4.1802978515625,33.7225341796875
2021-09-28 21:54:50.568981,0.033203125,-0.00830078125,1.4404296875,6.3995361328125,-4.251708984375,34.5245361328125
2021-09-28 21:54:50.579023,0.00732421875,-0.03076171875,1.06005859375,6.3720703125,-4.2901611328125,35.4583740234375
2021-09-28 21:54:50.589486,-0.02685546875,-0.01318359375,0.796875,6.30615234375,-4.3560791015625,36.485595703125
2021-09-28 21:54:50.598897,-0.03759765625,-0.00146484375,0.58984375,6.1468505859375,-4.4439697265625,37.6171875
2021-09-28 21:54:50.608820,-0.04443359375,-0.08935546875,0.43408203125,6.0150146484375,-4.5263671875,38.8421630859375
2021-09-28 21:54:50.619104,-0.037109375,-0.08837890625,0.53564453125,5.7952880859375,-4.4384765625,40.0836181640625
2021-09-28 21:54:50.628805,0.0849609375,-0.015625,0.15283203125,5.548095703125,-4.32861328125,41.121826171875
2021-09-28 21:54:50.638990,0.2333984375,-0.068359375,1.07421875,5.4986572265625,-4.2791748046875,41.8194580078125
2021-09-28 21:54:50.648753,-0.00537109375,-0.06640625,1.37548828125,5.5316162109375,-4.3231201171875,42.0611572265625
2021-09-28 21:54:50.658779,-0.03857421875,0.02783203125,1.59423828125,5.4931640625,-4.3560791015625,41.72607421875
2021-09-28 21:54:50.668739,-0.03173828125,-0.00830078125,1.60498046875,5.6195068359375,-4.2791748046875,40.8306884765625
2021-09-28 21:54:50.678622,0.0458984375,-0.0234375,1.07861328125,5.7073974609375,-4.1253662109375,39.6002197265625
2021-09-28 21:54:50.688821,-0.06884765625,-0.00537109375,0.802734375,5.64697265625,-4.0374755859375,38.309326171875
2021-09-28 21:54:50.698540,-0.2236328125,0.044921875,0.4287109375,5.537109375,-4.02099609375,37.08984375
2021-09-28 21:54:50.708573,-0.1787109375,0.1015625,0.28125,5.526123046875,-4.06494140625,35.9637451171875
2021-09-28 21:54:50.718671,0.04638671875,0.06103515625,0.5361328125,5.745849609375,-4.053955078125,35.1397705078125
2021-09-28 21:54:50.728445,0.26220703125,0.0673828125,0.828125,5.77880859375,-4.06494140625,34.7113037109375
2021-09-28 21:54:50.738518,0.12109375,0.0546875,1.0283203125,5.701904296875,-4.075927734375,34.65087890625
2021-09-28 21:54:50.748374,0.14306640625,0.04736328125,1.43359375,5.6744384765625,-4.19677734375,34.9530029296875
2021-09-28 21:54:50.758442,0.14306640625,0.1953125,1.857421875,5.789794921875,-4.3505859375,35.650634765625
2021-09-28 21:54:50.768310,0.13671875,-0.048828125,1.70166015625,5.7293701171875,-4.449462890625,36.5789794921875
2021-09-28 21:54:50.778248,-0.041015625,0.126953125,1.70849609375,5.80078125,-4.4384765625,37.5347900390625
2021-09-28 21:54:50.788293,-0.02587890625,-0.03173828125,1.513671875,5.8941650390625,-4.5263671875,38.375244140625
2021-09-28 21:54:50.798204,-0.02099609375,-0.1220703125,1.27734375,5.987548828125,-4.5208740234375,39.0234375
2021-09-28 21:54:50.808090,0.037109375,-0.10693359375,0.79638671875,5.9765625,-4.5263671875,39.495849609375
2021-09-28 21:54:50.818220,0.02783203125,-0.072265625,0.70751953125,5.9326171875,-4.5318603515625,39.891357421875
2021-09-28 21:54:50.828425,0.02783203125,-0.05810546875,0.4462890625,5.8392333984375,-4.5977783203125,40.341796875
2021-09-28 21:54:50.838581,-0.06591796875,-0.0302734375,0.404296875,5.7952880859375,-4.6966552734375,40.95703125
2021-09-28 21:54:50.848406,-0.0419921875,-0.02001953125,0.26513671875,5.7623291015625,-4.801025390625,41.72607421875
2021-09-28 21:54:50.858351,-0.0087890625,0.02587890625,0.083984375,5.6964111328125,-4.844970703125,42.4786376953125
2021-09-28 21:54:50.868375,0.02001953125,0.0361328125,0.6689453125,5.7073974609375,-4.8394775390625,43.0499267578125
2021-09-28 21:54:50.878311,0.03759765625,0.001953125,1.326171875,5.8172607421875,-4.8779296875,43.3685302734375
2021-09-28 21:54:50.888189,-0.015625,0.080078125,1.62548828125,5.82275390625,-4.9658203125,43.560791015625
2021-09-28 21:54:50.898215,-0.048828125,0.07568359375,2.28125,5.8612060546875,-5.0152587890625,43.83544921875
2021-09-28 21:54:50.908288,-0.02197265625,-0.033203125,1.78515625,5.91064453125,-5.086669921875,44.3792724609375
2021-09-28 21:54:50.918207,0.03466796875,-0.00634765625,1.44091796875,5.8282470703125,-5.152587890625,45.17578125
2021-09-28 21:54:50.928188,0.01953125,-0.01171875,1.10302734375,5.7843017578125,-5.1910400390625,46.1041259765625
2021-09-28 21:54:50.938000,-0.01611328125,-0.01708984375,0.759765625,5.7183837890625,-5.262451171875,47.1258544921875
2021-09-28 21:54:50.948004,-0.037109375,-0.0078125,0.62060546875,5.5645751953125,-5.361328125,48.262939453125
2021-09-28 21:54:50.958091,-0.025390625,-0.07958984375,0.38916015625,5.416259765625,-5.4437255859375,49.482421875
2021-09-28 21:54:50.967917,-0.09619140625,-0.046875,0.40380859375,5.1690673828125,-5.3668212890625,50.723876953125
2021-09-28 21:54:50.977932,0.08837890625,0.01806640625,0.26513671875,4.8944091796875,-5.2569580078125,51.7730712890625
2021-09-28 21:54:50.988031,0.2490234375,-0.04248046875,1.1552734375,4.8175048828125,-5.196533203125,52.4761962890625
2021-09-28 21:54:50.997909,0.0087890625,-0.091796875,1.40576171875,4.844970703125,-5.2349853515625,52.723388671875
2021-09-28 21:54:51.007928,-0.02734375,0.01806640625,1.5849609375,4.7845458984375,-5.2789306640625,52.393798828125
2021-09-28 21:54:51.017940,-0.03857421875,-0.00146484375,1.63916015625,4.9053955078125,-5.2239990234375,51.4984130859375
2021-09-28 21:54:51.027907,0.03466796875,-0.0048828125,1.1005859375,5.0152587890625,-5.0921630859375,50.2734375
2021-09-28 21:54:51.037825,-0.04833984375,0.005859375,0.79248046875,4.9932861328125,-5.0152587890625,48.9825439453125
2021-09-28 21:54:51.047710,-0.19091796875,0.046875,0.404296875,4.9493408203125,-4.998779296875,47.7685546875
2021-09-28 21:54:51.057691,-0.1552734375,0.09130859375,0.25439453125,4.9932861328125,-5.0262451171875,46.6534423828125
2021-09-28 21:54:51.067944,0.0361328125,0.044921875,0.56884765625,5.20751953125,-4.9932861328125,45.8404541015625
2021-09-28 21:54:51.077420,0.21435546875,0.08544921875,0.71728515625,5.262451171875,-4.9658203125,45.439453125
2021-09-28 21:54:51.088144,0.0693359375,0.04736328125,1.1083984375,5.2294921875,-4.921875,45.406494140625
2021-09-28 21:54:51.097452,0.142578125,-0.10693359375,1.3564453125,5.2130126953125,-4.9658203125,45.7415771484375
2021-09-28 21:54:51.107396,0.21923828125,0.140625,1.76220703125,5.284423828125,-5.0482177734375,46.4996337890625
2021-09-28 21:54:51.117273,0.013671875,0.22998046875,1.6328125,5.218505859375,-5.1141357421875,47.4609375
2021-09-28 21:54:51.127430,-0.06298828125,-0.04443359375,1.75732421875,5.20751953125,-5.1690673828125,48.416748046875
2021-09-28 21:54:51.137265,-0.0625,0.0244140625,1.59619140625,5.2349853515625,-5.306396484375,49.2352294921875
2021-09-28 21:54:51.147325,0.0009765625,-0.09375,1.0625,5.2899169921875,-5.350341796875,49.8779296875
2021-09-28 21:54:51.157323,0.0126953125,-0.0654296875,0.87353515625,5.2459716796875,-5.3558349609375,50.361328125
2021-09-28 21:54:51.167179,0.02978515625,-0.02587890625,0.7392578125,5.196533203125,-5.350341796875,50.767822265625
2021-09-28 21:54:51.177252,0.01806640625,-0.01318359375,0.453125,5.11962890625,-5.394287109375,51.21826171875
2021-09-28 21:54:51.187378,-0.06787109375,0.001953125,0.3876953125,5.086669921875,-5.460205078125,51.8280029296875
2021-09-28 21:54:51.197286,-0.0576171875,-0.03466796875,0.31494140625,5.086669921875,-5.5535888671875,52.5970458984375
2021-09-28 21:54:51.207054,-0.0185546875,0.00830078125,0.0576171875,5.020751953125,-5.60302734375,53.349609375
2021-09-28 21:54:51.216729,0.02783203125,0.02587890625,0.67236328125,5.020751953125,-5.5975341796875,53.909912109375
2021-09-28 21:54:51.226608,0.037109375,-0.033203125,1.365234375,5.1470947265625,-5.625,54.217529296875
2021-09-28 21:54:51.236548,-0.03076171875,0.0546875,1.69140625,5.1580810546875,-5.6964111328125,54.393310546875
2021-09-28 21:54:51.246472,-0.0498046875,0.10302734375,2.22314453125,5.185546875,-5.73486328125,54.6514892578125
2021-09-28 21:54:51.256588,-0.0087890625,-0.02783203125,1.8544921875,5.2349853515625,-5.767822265625,55.1898193359375
2021-09-28 21:54:51.266469,0.02734375,-0.005859375,1.43310546875,5.1361083984375,-5.8172607421875,55.9918212890625
2021-09-28 21:54:51.276492,0.03369140625,-0.013671875,1.13037109375,5.0701904296875,-5.8447265625,56.93115234375
2021-09-28 21:54:51.286470,0.00244140625,-0.033203125,0.6953125,5.009765625,-5.8831787109375,57.9583740234375
2021-09-28 21:54:51.296457,-0.0009765625,-0.0068359375,0.61669921875,4.85595703125,-5.965576171875,59.1064453125
2021-09-28 21:54:51.306362,-0.04638671875,-0.08642578125,0.33203125,4.691162109375,-6.0369873046875,60.3369140625
2021-09-28 21:54:51.316295,-0.1611328125,0.01611328125,0.27783203125,4.4219970703125,-5.9765625,61.58935546875
2021-09-28 21:54:51.326379,0.11181640625,0.02099609375,0.2919921875,4.097900390625,-5.888671875,62.6715087890625
2021-09-28 21:54:51.336279,0.23974609375,0.0107421875,1.31884765625,3.988037109375,-5.833740234375,63.402099609375
2021-09-28 21:54:51.346212,0.00146484375,-0.107421875,1.32470703125,4.02099609375,-5.899658203125,63.6492919921875
2021-09-28 21:54:51.356157,-0.0205078125,0.01123046875,1.5146484375,3.966064453125,-5.9710693359375,63.3087158203125
2021-09-28 21:54:51.366174,-0.03662109375,-0.00048828125,1.59326171875,4.0869140625,-5.9271240234375,62.413330078125
2021-09-28 21:54:51.376266,0.041015625,0.0068359375,1.138671875,4.2242431640625,-5.7952880859375,61.19384765625
2021-09-28 21:54:51.386064,-0.07080078125,0.05029296875,0.78271484375,4.19677734375,-5.712890625,59.91943359375
2021-09-28 21:54:51.396026,-0.22021484375,0.07421875,0.4208984375,4.1473388671875,-5.6854248046875,58.721923828125
2021-09-28 21:54:51.406053,-0.177734375,0.111328125,0.263671875,4.2242431640625,-5.6964111328125,57.63427734375
2021-09-28 21:54:51.416199,0.00439453125,0.04150390625,0.5693359375,4.5098876953125,-5.635986328125,56.8377685546875
2021-09-28 21:54:51.425936,0.17724609375,0.08251953125,0.74072265625,4.603271484375,-5.5865478515625,56.4642333984375
2021-09-28 21:54:51.435651,0.04052734375,0.080078125,1.15283203125,4.5867919921875,-5.51513671875,56.49169921875
2021-09-28 21:54:51.445823,0.08349609375,-0.044921875,1.22314453125,4.6142578125,-5.526123046875,56.88720703125
2021-09-28 21:54:51.455805,0.107421875,0.10205078125,1.67724609375,4.6142578125,-5.592041015625,57.7001953125
2021-09-28 21:54:51.465703,0.08642578125,0.12353515625,2.1279296875,4.5428466796875,-5.6854248046875,58.68896484375
2021-09-28 21:54:51.475762,-0.04736328125,-0.1142578125,1.828125,4.449462890625,-5.7952880859375,59.65576171875
2021-09-28 21:54:51.485679,-0.0537109375,-0.0029296875,1.5126953125,4.427490234375,-5.9271240234375,60.457763671875
2021-09-28 21:54:51.495595,-0.02685546875,0.0146484375,1.025390625,4.405517578125,-5.9930419921875,61.083984375
2021-09-28 21:54:51.505480,-0.0029296875,0.005859375,0.92578125,4.37255859375,-6.0150146484375,61.5618896484375
2021-09-28 21:54:51.515573,0.01806640625,-0.04150390625,0.72900390625,4.3341064453125,-6.0260009765625,61.9573974609375
2021-09-28 21:54:51.525443,0.02587890625,-0.001953125,0.4609375,4.28466796875,-6.0589599609375,62.391357421875
2021-09-28 21:54:51.535559,-0.05029296875,0.005859375,0.38232421875,4.24072265625,-6.1029052734375,62.99560546875
2021-09-28 21:54:51.545445,-0.0673828125,-0.0439453125,0.3037109375,4.24072265625,-6.1688232421875,63.7811279296875
2021-09-28 21:54:51.555474,-0.03564453125,-0.01171875,0.08056640625,4.1693115234375,-6.2127685546875,64.5391845703125
2021-09-28 21:54:51.565383,0.04296875,0.02783203125,0.6015625,4.141845703125,-6.1907958984375,65.115966796875
2021-09-28 21:54:51.575327,0.03076171875,-0.03515625,1.37060546875,4.273681640625,-6.1907958984375,65.4400634765625
2021-09-28 21:54:51.585886,-0.05224609375,0.052734375,1.78076171875,4.28466796875,-6.251220703125,65.6158447265625
2021-09-28 21:54:51.595138,-0.04345703125,0.09326171875,2.1435546875,4.2901611328125,-6.2896728515625,65.85205078125
2021-09-28 21:54:51.605218,0.01220703125,-0.01904296875,1.923828125,4.3341064453125,-6.3226318359375,66.37939453125
2021-09-28 21:54:51.615270,0.0302734375,-0.01025390625,1.4287109375,4.2352294921875,-6.3446044921875,67.181396484375
2021-09-28 21:54:51.625419,0.04052734375,-0.0146484375,1.15771484375,4.1473388671875,-6.3446044921875,68.1207275390625
2021-09-28 21:54:51.635410,0.0224609375,-0.03662109375,0.6728515625,4.0924072265625,-6.361083984375,69.1424560546875
2021-09-28 21:54:51.645275,0.00830078125,-0.0263671875,0.59814453125,3.955078125,-6.416015625,70.2850341796875
2021-09-28 21:54:51.655361,-0.0478515625,-0.09619140625,0.314453125,3.790283203125,-6.4764404296875,71.5155029296875
2021-09-28 21:54:51.665455,-0.18896484375,0.00927734375,0.34765625,3.4716796875,-6.416015625,72.7679443359375
2021-09-28 21:54:51.675417,0.13232421875,0.0361328125,0.25146484375,3.1256103515625,-6.3336181640625,73.861083984375
2021-09-28 21:54:51.685325,0.30029296875,0.01220703125,1.29345703125,3.0322265625,-6.3116455078125,74.5806884765625
2021-09-28 21:54:51.695233,-0.0048828125,-0.10302734375,1.3408203125,3.065185546875,-6.4215087890625,74.8114013671875
2021-09-28 21:54:51.705232,-0.02392578125,0.0244140625,1.49169921875,2.977294921875,-6.5203857421875,74.4598388671875
2021-09-28 21:54:51.715027,-0.02978515625,0.0,1.5126953125,3.1036376953125,-6.4764404296875,73.5699462890625
2021-09-28 21:54:51.724832,0.05322265625,0.0048828125,1.16357421875,3.218994140625,-6.361083984375,72.35595703125
2021-09-28 21:54:51.735104,-0.08642578125,0.08349609375,0.78271484375,3.175048828125,-6.3006591796875,71.0870361328125
2021-09-28 21:54:51.744762,-0.248046875,0.0966796875,0.48779296875,3.1475830078125,-6.295166015625,69.8785400390625
2021-09-28 21:54:51.755085,-0.21142578125,0.13671875,0.2060546875,3.2354736328125,-6.328125,68.7579345703125
2021-09-28 21:54:51.765170,-0.0615234375,0.0654296875,0.45751953125,3.548583984375,-6.2786865234375,67.91748046875
2021-09-28 21:54:51.774759,0.15625,0.07373046875,0.76123046875,3.702392578125,-6.2127685546875,67.489013671875
2021-09-28 21:54:51.784651,0.05419921875,0.11181640625,1.2177734375,3.71337890625,-6.13037109375,67.467041015625
2021-09-28 21:54:51.794740,0.037109375,0.00927734375,1.189453125,3.75732421875,-6.1138916015625,67.8240966796875
2021-09-28 21:54:51.804651,-0.0390625,-0.02734375,1.3076171875,3.7078857421875,-6.13037109375,68.6041259765625
2021-09-28 21:54:51.814722,0.017578125,-0.0126953125,2.05859375,3.5650634765625,-6.240234375,69.6148681640625
2021-09-28 21:54:51.824778,0.00244140625,-0.04541015625,1.97802734375,3.4442138671875,-6.4324951171875,70.6036376953125
2021-09-28 21:54:51.834784,-0.052734375,0.0380859375,1.4755859375,3.3782958984375,-6.5753173828125,71.43310546875
2021-09-28 21:54:51.844651,0.00390625,0.0087890625,1.10205078125,3.284912109375,-6.6741943359375,72.0867919921875
2021-09-28 21:54:51.854436,-0.00341796875,0.01220703125,1.05126953125,3.2794189453125,-6.6851806640625,72.564697265625
2021-09-28 21:54:51.864493,0.03466796875,-0.00634765625,0.58642578125,3.240966796875,-6.6961669921875,72.938232421875
2021-09-28 21:54:51.874511,0.02978515625,-0.0224609375,0.4658203125,3.2025146484375,-6.7071533203125,73.3612060546875
2021-09-28 21:54:51.884413,-0.0283203125,0.009765625,0.421875,3.14208984375,-6.7401123046875,73.9434814453125
2021-09-28 21:54:51.894359,-0.0703125,-0.013671875,0.37744140625,3.153076171875,-6.7840576171875,74.70703125
2021-09-28 21:54:51.904329,-0.033203125,-0.02734375,0.08251953125,3.1201171875,-6.800537109375,75.4595947265625
2021-09-28 21:54:51.914499,0.0498046875,0.0439453125,0.53955078125,3.0816650390625,-6.778564453125,76.036376953125
2021-09-28 21:54:51.924260,0.0517578125,-0.01611328125,1.3671875,3.218994140625,-6.767578125,76.35498046875
2021-09-28 21:54:51.934193,-0.013671875,0.05322265625,1.7998046875,3.2794189453125,-6.8060302734375,76.53076171875
2021-09-28 21:54:51.944279,-0.03759765625,0.09912109375,2.05712890625,3.31787109375,-6.83349609375,76.761474609375
2021-09-28 21:54:51.954283,0.015625,-0.01123046875,1.9619140625,3.394775390625,-6.866455078125,77.2613525390625
2021-09-28 21:54:51.964238,0.0400390625,-0.02587890625,1.39599609375,3.3343505859375,-6.888427734375,78.035888671875
2021-09-28 21:54:51.974033,0.05615234375,-0.02490234375,1.21533203125,3.2794189453125,-6.8939208984375,78.9642333984375
2021-09-28 21:54:51.983981,-0.00390625,-0.0458984375,0.6728515625,3.2135009765625,-6.888427734375,79.98046875
2021-09-28 21:54:51.994091,0.005859375,-0.0634765625,0.6240234375,3.0377197265625,-6.888427734375,81.0955810546875
2021-09-28 21:54:52.004083,-0.02880859375,-0.12548828125,0.49755859375,2.845458984375,-6.866455078125,82.2930908203125
2021-09-28 21:54:52.014119,-0.0986328125,0.009765625,0.29443359375,2.4444580078125,-6.7236328125,83.5125732421875
2021-09-28 21:54:52.024110,0.2109375,0.0068359375,0.21533203125,2.032470703125,-6.61376953125,84.5782470703125
2021-09-28 21:54:52.033877,0.39599609375,0.00439453125,1.20556640625,1.9720458984375,-6.6192626953125,85.2923583984375
2021-09-28 21:54:52.043838,-0.0009765625,-0.1416015625,1.37109375,2.021484375,-6.7840576171875,85.5340576171875
2021-09-28 21:54:52.053707,-0.0556640625,0.05078125,1.4375,1.9061279296875,-6.8939208984375,85.2099609375
2021-09-28 21:54:52.063674,-0.005859375,0.02197265625,1.35205078125,2.0599365234375,-6.8389892578125,84.35302734375
2021-09-28 21:54:52.073792,0.06103515625,0.033203125,1.05419921875,2.2027587890625,-6.7071533203125,83.1829833984375
2021-09-28 21:54:52.084200,-0.11083984375,0.1015625,0.8388671875,2.109375,-6.65771484375,81.947021484375
2021-09-28 21:54:52.093398,-0.32568359375,0.15966796875,0.49462890625,2.021484375,-6.6741943359375,80.7879638671875
2021-09-28 21:54:52.103645,-0.26708984375,0.19921875,0.2880859375,2.13134765625,-6.7401123046875,79.73876953125
2021-09-28 21:54:52.113853,-0.05126953125,0.02783203125,0.45703125,2.4993896484375,-6.7236328125,78.9752197265625
2021-09-28 21:54:52.123469,0.1591796875,0.076171875,0.85107421875,2.6751708984375,-6.6961669921875,78.6181640625
2021-09-28 21:54:52.133415,0.04443359375,0.10009765625,1.22509765625,2.6751708984375,-6.602783203125,78.6895751953125
2021-09-28 21:54:52.143436,-0.021484375,0.1259765625,1.35009765625,2.724609375,-6.558837890625,79.1455078125
2021-09-28 21:54:52.153271,-0.0859375,-0.181640625,1.6943359375,2.647705078125,-6.558837890625,79.9639892578125
2021-09-28 21:54:52.163194,0.0791015625,-0.15234375,2.0087890625,2.559814453125,-6.65771484375,80.9417724609375
2021-09-28 21:54:52.173311,-0.03564453125,-0.0263671875,1.9375,2.4224853515625,-6.844482421875,81.89208984375
2021-09-28 21:54:52.183309,-0.04296875,0.0126953125,1.39208984375,2.3126220703125,-6.9873046875,82.7105712890625
2021-09-28 21:54:52.193209,-0.05419921875,0.04833984375,1.103515625,2.186279296875,-7.0697021484375,83.3807373046875
2021-09-28 21:54:52.203323,-0.0205078125,0.01171875,0.90673828125,2.1588134765625,-7.09716796875,83.880615234375
2021-09-28 21:54:52.213351,0.01953125,-0.0029296875,0.64794921875,2.1148681640625,-7.108154296875,84.2816162109375
2021-09-28 21:54:52.223190,0.0400390625,-0.025390625,0.43994140625,2.0709228515625,-7.09716796875,84.715576171875
2021-09-28 21:54:52.233011,-0.0126953125,0.013671875,0.4716796875,2.010498046875,-7.09716796875,85.3033447265625
2021-09-28 21:54:52.242940,-0.0732421875,-0.015625,0.34716796875,2.032470703125,-7.108154296875,86.06689453125
2021-09-28 21:54:52.252972,-0.04443359375,-0.05517578125,0.10400390625,2.0159912109375,-7.108154296875,86.81396484375
2021-09-28 21:54:52.263145,0.044921875,0.041015625,0.54443359375,1.9610595703125,-7.064208984375,87.374267578125
2021-09-28 21:54:52.272890,0.06005859375,-0.01220703125,1.380859375,2.0928955078125,-7.0587158203125,87.6763916015625
2021-09-28 21:54:52.282766,0.001953125,0.05517578125,1.7744140625,2.164306640625,-7.1026611328125,87.835693359375
2021-09-28 21:54:52.292901,-0.0234375,0.09423828125,2.1162109375,2.2137451171875,-7.1466064453125,88.0499267578125
2021-09-28 21:54:52.302783,0.02294921875,-0.00390625,1.9619140625,2.296142578125,-7.174072265625,88.5333251953125
2021-09-28 21:54:52.312731,0.0556640625,0.00390625,1.40771484375,2.2357177734375,-7.18505859375,89.2913818359375
2021-09-28 21:54:52.322781,0.03076171875,-0.0146484375,1.232421875,2.1917724609375,-7.18505859375,90.2142333984375
2021-09-28 21:54:52.332704,-0.02001953125,-0.03564453125,0.78857421875,2.1038818359375,-7.18505859375,91.219482421875
2021-09-28 21:54:52.342554,0.02880859375,-0.0478515625,0.56787109375,1.9281005859375,-7.1685791015625,92.3291015625
2021-09-28 21:54:52.352639,-0.04638671875,-0.14892578125,0.50146484375,1.7523193359375,-7.1246337890625,93.5211181640625
2021-09-28 21:54:52.362386,-0.134765625,-0.0625,-0.0302734375,1.3348388671875,-6.976318359375,94.72412109375
2021-09-28 21:54:52.372339,0.2646484375,0.06201171875,0.30712890625,0.867919921875,-6.83349609375,95.8062744140625
2021-09-28 21:54:52.382413,0.48583984375,0.01611328125,1.13525390625,0.802001953125,-6.822509765625,96.5643310546875
2021-09-28 21:54:52.392339,0.0322265625,-0.1611328125,1.24951171875,0.889892578125,-6.96533203125,96.888427734375
2021-09-28 21:54:52.402212,-0.0439453125,0.02490234375,1.396484375,0.7415771484375,-7.108154296875,96.6851806640625
2021-09-28 21:54:52.412073,0.04052734375,0.015625,1.4775390625,0.85693359375,-7.0751953125,95.9271240234375
2021-09-28 21:54:52.421961,0.07373046875,0.009765625,1.0830078125,1.0107421875,-6.9488525390625,94.7955322265625
2021-09-28 21:54:52.431860,-0.13720703125,0.109375,0.90966796875,0.87890625,-6.9158935546875,93.5650634765625
2021-09-28 21:54:52.441845,-0.390625,0.205078125,0.4306640625,0.7635498046875,-6.9488525390625,92.4169921875
2021-09-28 21:54:52.452081,-0.259765625,0.21435546875,0.388671875,0.9283447265625,-7.0037841796875,91.3568115234375
2021-09-28 21:54:52.462122,-0.04931640625,0.005859375,0.359375,1.3677978515625,-6.976318359375,90.5328369140625
2021-09-28 21:54:52.471917,0.1513671875,0.04638671875,0.7939453125,1.5985107421875,-6.9268798828125,90.076904296875
2021-09-28 21:54:52.481627,0.05126953125,0.0849609375,1.1953125,1.636962890625,-6.7950439453125,90.0604248046875
2021-09-28 21:54:52.491846,-0.02099609375,0.04736328125,1.25341796875,1.6754150390625,-6.7071533203125,90.428466796875
2021-09-28 21:54:52.501779,-0.0361328125,-0.3623046875,1.984375,1.60400390625,-6.6741943359375,91.131591796875
2021-09-28 21:54:52.511604,0.0322265625,0.0654296875,2.00390625,1.4666748046875,-6.7620849609375,92.054443359375
2021-09-28 21:54:52.521677,-0.0361328125,-0.0947265625,1.64453125,1.329345703125,-6.954345703125,92.98828125
2021-09-28 21:54:52.531586,-0.0537109375,0.0986328125,1.4501953125,1.197509765625,-7.0916748046875,93.80126953125
2021-09-28 21:54:52.541584,-0.0400390625,0.1005859375,1.24609375,1.0601806640625,-7.1466064453125,94.449462890625
2021-09-28 21:54:52.551436,-0.015625,0.01123046875,0.8095703125,1.0491943359375,-7.14111328125,94.9383544921875
2021-09-28 21:54:52.561359,0.03466796875,-0.02392578125,0.6552734375,1.03271484375,-7.130126953125,95.3448486328125
2021-09-28 21:54:52.571413,0.03564453125,-0.02392578125,0.42138671875,1.0052490234375,-7.086181640625,95.7843017578125
2021-09-28 21:54:52.582113,-0.01806640625,0.02099609375,0.515625,0.9393310546875,-7.0697021484375,96.383056640625
2021-09-28 21:54:52.591418,-0.08056640625,-0.01123046875,0.33984375,0.94482421875,-7.0697021484375,97.152099609375
2021-09-28 21:54:52.601489,-0.03466796875,-0.0546875,0.09814453125,0.9063720703125,-7.0916748046875,97.9046630859375
2021-09-28 21:54:52.611499,0.04833984375,0.03564453125,0.46142578125,0.85693359375,-7.064208984375,98.470458984375
2021-09-28 21:54:52.621294,0.0458984375,-0.0205078125,1.328125,0.9832763671875,-7.0587158203125,98.778076171875
2021-09-28 21:54:52.631164,-0.0068359375,0.0576171875,1.81640625,1.0491943359375,-7.1136474609375,98.9263916015625
2021-09-28 21:54:52.641221,-0.02587890625,0.11328125,2.06494140625,1.0821533203125,-7.174072265625,99.1241455078125
2021-09-28 21:54:52.651176,0.03173828125,0.009765625,2.04541015625,1.1590576171875,-7.2235107421875,99.60205078125
2021-09-28 21:54:52.661048,0.0546875,0.009765625,1.390625,1.109619140625,-7.239990234375,100.360107421875
2021-09-28 21:54:52.670971,0.0029296875,-0.01171875,1.27734375,1.0711669921875,-7.2344970703125,101.2774658203125
2021-09-28 21:54:52.681195,-0.0244140625,-0.037109375,0.8408203125,0.9722900390625,-7.20703125,102.271728515625
2021-09-28 21:54:52.691089,0.02099609375,-0.0146484375,0.57958984375,0.7965087890625,-7.1356201171875,103.3648681640625
2021-09-28 21:54:52.701040,-0.06005859375,-0.14990234375,0.49609375,0.6427001953125,-7.0587158203125,104.5513916015625
2021-09-28 21:54:52.710912,-0.11474609375,-0.16455078125,-0.18701171875,0.230712890625,-6.9158935546875,105.75439453125
2021-09-28 21:54:52.721194,0.30615234375,0.09912109375,0.35693359375,-0.2581787109375,-6.7291259765625,106.85302734375
2021-09-28 21:54:52.731074,0.44970703125,0.03857421875,1.19921875,-0.3515625,-6.6851806640625,107.6385498046875
2021-09-28 21:54:52.740835,0.00927734375,-0.11181640625,1.0654296875,-0.2471923828125,-6.8280029296875,108.006591796875
2021-09-28 21:54:52.750776,-0.07421875,0.00634765625,1.3935546875,-0.4010009765625,-6.976318359375,107.8363037109375
2021-09-28 21:54:52.760694,0.02880859375,0.01318359375,1.55078125,-0.296630859375,-6.954345703125,107.0947265625
2021-09-28 21:54:52.770549,0.07470703125,-0.00341796875,1.16015625,-0.1263427734375,-6.85546875,105.963134765625
2021-09-28 21:54:52.780715,-0.09375,0.0810546875,0.986328125,-0.2252197265625,-6.866455078125,104.710693359375
2021-09-28 21:54:52.790700,-0.30224609375,0.18115234375,0.4453125,-0.3131103515625,-6.9488525390625,103.5296630859375
2021-09-28 21:54:52.800740,-0.24658203125,0.18505859375,0.3251953125,-0.186767578125,-7.042236328125,102.4090576171875
2021-09-28 21:54:52.810866,-0.0849609375,0.0087890625,0.35986328125,0.2032470703125,-7.0587158203125,101.5191650390625
2021-09-28 21:54:52.820567,0.13037109375,0.04150390625,0.70068359375,0.41748046875,-7.020263671875,101.00830078125
2021-09-28 21:54:52.830474,0.06494140625,0.07958984375,1.1953125,0.4449462890625,-6.9158935546875,100.9039306640625
2021-09-28 21:54:52.840357,-0.041015625,0.0673828125,1.10986328125,0.494384765625,-6.8499755859375,101.1895751953125
2021-09-28 21:54:52.850324,-0.10009765625,-0.06298828125,1.83349609375,0.4833984375,-6.7730712890625,101.8487548828125
2021-09-28 21:54:52.860367,0.04736328125,-0.244140625,1.98486328125,0.32958984375,-6.8280029296875,102.7606201171875
2021-09-28 21:54:52.870291,-0.06201171875,0.03466796875,1.79541015625,0.19775390625,-6.943359375,103.68896484375
2021-09-28 21:54:52.880239,-0.0654296875,0.078125,1.52099609375,0.098876953125,-7.05322265625,104.501953125
2021-09-28 21:54:52.890281,-0.0146484375,0.11279296875,1.16796875,-0.010986328125,-7.086181640625,105.172119140625
2021-09-28 21:54:52.900323,0.01708984375,0.0224609375,0.9150390625,-0.0439453125,-7.064208984375,105.6939697265625
2021-09-28 21:54:52.910021,0.03076171875,0.0048828125,0.6650390625,-0.0604248046875,-7.042236328125,106.1114501953125
2021-09-28 21:54:52.920043,0.0263671875,-0.01904296875,0.43896484375,-0.087890625,-7.0037841796875,106.556396484375
2021-09-28 21:54:52.930033,-0.01171875,0.03515625,0.4267578125,-0.15380859375,-6.954345703125,107.149658203125
2021-09-28 21:54:52.940137,-0.07861328125,0.0009765625,0.353515625,-0.164794921875,-6.9268798828125,107.90771484375
2021-09-28 21:54:52.949999,-0.0380859375,-0.05078125,0.09765625,-0.19775390625,-6.9268798828125,108.665771484375
2021-09-28 21:54:52.960126,0.041015625,0.04052734375,0.4189453125,-0.252685546875,-6.888427734375,109.237060546875
2021-09-28 21:54:52.969818,0.03466796875,-0.0126953125,1.30810546875,-0.1318359375,-6.888427734375,109.5556640625
2021-09-28 21:54:52.979959,-0.0107421875,0.07470703125,1.763671875,-0.054931640625,-6.9488525390625,109.7149658203125
2021-09-28 21:54:52.989933,-0.005859375,0.12255859375,1.9326171875,-0.0164794921875,-7.0257568359375,109.9017333984375
2021-09-28 21:54:52.999904,0.03662109375,-0.00244140625,2.09716796875,0.076904296875,-7.0751953125,110.3631591796875
2021-09-28 21:54:53.009773,0.06884765625,0.0224609375,1.32275390625,0.0439453125,-7.1026611328125,111.1102294921875
2021-09-28 21:54:53.019658,-0.04150390625,-0.0419921875,1.28515625,0.02197265625,-7.086181640625,112.03857421875
2021-09-28 21:54:53.029782,-0.041015625,0.0009765625,0.9775390625,-0.098876953125,-7.042236328125,113.0218505859375
2021-09-28 21:54:53.039642,0.06787109375,0.02783203125,0.47265625,-0.263671875,-6.9488525390625,114.0985107421875
2021-09-28 21:54:53.049574,-0.06396484375,-0.17236328125,0.32373046875,-0.41748046875,-6.8499755859375,115.2740478515625
2021-09-28 21:54:53.059644,-0.1826171875,-0.1552734375,0.02783203125,-0.845947265625,-6.668701171875,116.466064453125
2021-09-28 21:54:53.069639,0.26708984375,0.16650390625,0.31787109375,-1.3348388671875,-6.4434814453125,117.5592041015625
2021-09-28 21:54:53.080276,0.44482421875,0.04296875,1.03955078125,-1.42822265625,-6.3720703125,118.3502197265625
2021-09-28 21:54:53.089575,0.0107421875,-0.111328125,1.16455078125,-1.3238525390625,-6.4984130859375,118.729248046875
2021-09-28 21:54:53.099467,-0.08349609375,0.01416015625,1.3037109375,-1.47216796875,-6.6302490234375,118.5809326171875
2021-09-28 21:54:53.109280,0.0185546875,0.00439453125,1.63525390625,-1.3787841796875,-6.624755859375,117.861328125
2021-09-28 21:54:53.119347,0.0654296875,0.00048828125,1.1708984375,-1.20849609375,-6.558837890625,116.7352294921875
2021-09-28 21:54:53.129349,-0.0595703125,0.08349609375,1.0634765625,-1.29638671875,-6.591796875,115.4827880859375
2021-09-28 21:54:53.139241,-0.2294921875,0.15283203125,0.4853515625,-1.3623046875,-6.7071533203125,114.2962646484375
2021-09-28 21:54:53.149282,-0.21728515625,0.1669921875,0.267578125,-1.241455078125,-6.8280029296875,113.170166015625
2021-09-28 21:54:53.159432,-0.0859375,0.0283203125,0.3271484375,-0.911865234375,-6.888427734375,112.247314453125
2021-09-28 21:54:53.169170,0.16015625,0.025390625,0.63134765625,-0.7305908203125,-6.888427734375,111.719970703125
2021-09-28 21:54:53.179041,0.099609375,0.0732421875,1.16259765625,-0.714111328125,-6.8115234375,111.6156005859375
2021-09-28 21:54:53.189079,0.05078125,-0.00390625,1.216796875,-0.6976318359375,-6.778564453125,111.895751953125
2021-09-28 21:54:53.199071,-0.00927734375,-0.056640625,1.244140625,-0.6866455078125,-6.7401123046875,112.56591796875
2021-09-28 21:54:53.209062,0.03955078125,0.0263671875,2.12060546875,-0.7965087890625,-6.74560546875,113.499755859375
2021-09-28 21:54:53.218940,-0.0244140625,-0.0498046875,1.93896484375,-0.9393310546875,-6.7950439453125,114.444580078125
2021-09-28 21:54:53.228862,-0.0966796875,0.0546875,1.6005859375,-1.0052490234375,-6.8499755859375,115.2740478515625
2021-09-28 21:54:53.238790,-0.04248046875,0.00244140625,1.123046875,-1.07666015625,-6.8719482421875,115.938720703125
2021-09-28 21:54:53.248866,-0.04052734375,0.0205078125,1.08349609375,-1.1041259765625,-6.8170166015625,116.4495849609375
2021-09-28 21:54:53.258785,0.0087890625,-0.00537109375,0.65673828125,-1.1370849609375,-6.7620849609375,116.861572265625
2021-09-28 21:54:53.268662,0.00390625,-0.00439453125,0.4462890625,-1.1810302734375,-6.7181396484375,117.2955322265625
2021-09-28 21:54:53.278593,-0.01318359375,0.01318359375,0.40478515625,-1.25244140625,-6.690673828125,117.88330078125
2021-09-28 21:54:53.288703,-0.0537109375,0.0126953125,0.375,-1.2799072265625,-6.6741943359375,118.6468505859375
2021-09-28 21:54:53.298547,-0.02734375,-0.0166015625,0.0361328125,-1.329345703125,-6.668701171875,119.42138671875
2021-09-28 21:54:53.309035,0.025390625,0.03955078125,0.41259765625,-1.373291015625,-6.624755859375,120.0201416015625
2021-09-28 21:54:53.318483,0.04248046875,-0.03125,1.26953125,-1.23046875,-6.6192626953125,120.355224609375
2021-09-28 21:54:53.328408,-0.00244140625,0.07421875,1.74169921875,-1.1700439453125,-6.6741943359375,120.531005859375
2021-09-28 21:54:53.338468,-0.00244140625,0.07421875,1.74169921875,-1.109619140625,-6.7291259765625,120.706787109375
2021-09-28 21:54:53.348405,0.001953125,0.1435546875,1.92431640625,-1.07666015625,-6.778564453125,120.8990478515625
2021-09-28 21:54:53.358363,0.01416015625,-0.0166015625,2.1865234375,-0.9503173828125,-6.8060302734375,121.35498046875
2021-09-28 21:54:53.368435,0.07275390625,-0.017578125,1.28466796875,-0.9942626953125,-6.8499755859375,122.0965576171875
2021-09-28 21:54:53.378111,-0.06494140625,-0.05517578125,1.29736328125,-1.0382080078125,-6.8280029296875,123.0194091796875
2021-09-28 21:54:53.388370,-0.0419921875,0.01953125,0.9951171875,-1.1920166015625,-6.7401123046875,123.99169921875
2021-09-28 21:54:53.398237,0.037109375,0.052734375,0.619140625,-1.3787841796875,-6.602783203125,125.057373046875
2021-09-28 21:54:53.408122,-0.0634765625,-0.11669921875,0.36376953125,-1.5106201171875,-6.492919921875,126.221923828125
2021-09-28 21:54:53.418267,-0.130859375,-0.12353515625,-0.16748046875,-1.878662109375,-6.328125,127.41943359375
2021-09-28 21:54:53.428293,0.21728515625,0.13232421875,0.296875,-2.35107421875,-6.097412109375,128.5235595703125
2021-09-28 21:54:53.438166,0.365234375,0.07666015625,1.23193359375,-2.4664306640625,-6.0150146484375,129.3475341796875
2021-09-28 21:54:53.447997,0.00537109375,-0.08056640625,0.86474609375,-2.3345947265625,-6.08642578125,129.759521484375
2021-09-28 21:54:53.457845,-0.0703125,-0.0263671875,1.36767578125,-2.4334716796875,-6.1907958984375,129.638671875
2021-09-28 21:54:53.467982,0.01953125,-0.0107421875,1.7109375,-2.3345947265625,-6.185302734375,128.91357421875
2021-09-28 21:54:53.477879,0.07568359375,-0.03271484375,1.35009765625,-2.1478271484375,-6.1468505859375,127.760009765625
2021-09-28 21:54:53.487970,-0.01611328125,0.04052734375,1.04248046875,-2.2027587890625,-6.229248046875,126.474609375
2021-09-28 21:54:53.497831,-0.17236328125,0.13916015625,0.4931640625,-2.2686767578125,-6.3665771484375,125.2496337890625
2021-09-28 21:54:53.508030,-0.193359375,0.12353515625,0.23388671875,-2.197265625,-6.50390625,124.068603515625
2021-09-28 21:54:53.517893,-0.11376953125,0.0341796875,0.20947265625,-1.944580078125,-6.602783203125,123.079833984375
2021-09-28 21:54:53.527870,0.095703125,0.0478515625,0.56689453125,-1.7523193359375,-6.5972900390625,122.4755859375
2021-09-28 21:54:53.537551,0.12060546875,0.05322265625,1.1748046875,-1.6973876953125,-6.536865234375,122.2503662109375
2021-09-28 21:54:53.547557,0.0498046875,-0.0068359375,1.08984375,-1.6754150390625,-6.4874267578125,122.398681640625
2021-09-28 21:54:53.557625,0.04736328125,-0.0673828125,1.3251953125,-1.658935546875,-6.448974609375,122.947998046875
2021-09-28 21:54:53.567478,0.0,-0.04736328125,2.09033203125,-1.7523193359375,-6.4215087890625,123.837890625
2021-09-28 21:54:53.577383,-0.08056640625,0.0546875,1.666015625,-1.86767578125,-6.416015625,124.7882080078125
2021-09-28 21:54:53.587513,-0.06787109375,0.01904296875,1.59130859375,-1.9390869140625,-6.4654541015625,125.6231689453125
2021-09-28 21:54:53.597573,-0.0283203125,-0.01318359375,1.29736328125,-1.9830322265625,-6.4544677734375,126.2823486328125
2021-09-28 21:54:53.607378,-0.017578125,-0.03173828125,1.1318359375,-2.0269775390625,-6.39404296875,126.7822265625
2021-09-28 21:54:53.617365,0.005859375,-0.00244140625,0.6591796875,-2.0599365234375,-6.3336181640625,127.188720703125
2021-09-28 21:54:53.627251,0.01318359375,-0.0185546875,0.46826171875,-2.098388671875,-6.30615234375,127.628173828125
2021-09-28 21:54:53.637316,-0.0048828125,0.01220703125,0.4140625,-2.1697998046875,-6.2786865234375,128.2049560546875
2021-09-28 21:54:53.647223,-0.041015625,-0.00830078125,0.37744140625,-2.208251953125,-6.2457275390625,128.9630126953125
2021-09-28 21:54:53.657229,-0.0244140625,-0.021484375,0.0302734375,-2.2467041015625,-6.2237548828125,129.7430419921875
2021-09-28 21:54:53.667205,0.02734375,0.0322265625,0.341796875,-2.296142578125,-6.1688232421875,130.3582763671875
2021-09-28 21:54:53.676936,0.0380859375,-0.02978515625,1.20263671875,-2.1697998046875,-6.1468505859375,130.7098388671875
2021-09-28 21:54:53.687213,-0.00146484375,0.08203125,1.68310546875,-2.1148681640625,-6.1907958984375,130.8966064453125
2021-09-28 21:54:53.697111,0.00634765625,0.14453125,1.87744140625,-2.0928955078125,-6.2237548828125,131.0833740234375
2021-09-28 21:54:53.707004,0.0126953125,-0.02587890625,2.22802734375,-1.9720458984375,-6.2457275390625,131.517333984375
2021-09-28 21:54:53.717019,0.037109375,0.0078125,1.38232421875,-2.021484375,-6.2677001953125,132.25341796875
2021-09-28 21:54:53.726939,-0.046875,-0.01220703125,1.400390625,-2.054443359375,-6.229248046875,133.1707763671875
2021-09-28 21:54:53.736876,-0.05859375,-0.0078125,0.9775390625,-2.17529296875,-6.15234375,134.1595458984375
2021-09-28 21:54:53.746847,0.00439453125,0.03662109375,0.69921875,-2.3785400390625,-6.0150146484375,135.230712890625
2021-09-28 21:54:53.756753,0.05615234375,-0.1357421875,0.39111328125,-2.493896484375,-5.9161376953125,136.395263671875
2021-09-28 21:54:53.766871,-0.11474609375,-0.158203125,-0.40771484375,-158.7908935546875,-5.7183837890625,137.5982666015625
2021-09-28 21:54:53.776655,0.18994140625,0.126953125,0.52099609375,13.6944580078125,-5.4931640625,136.483154296875
2021-09-28 21:54:53.787019,0.341796875,0.07080078125,1.15478515625,13.5406494140625,-5.6304931640625,137.3126220703125
2021-09-28 21:54:53.796773,0.03857421875,-0.07958984375,0.7958984375,13.656005859375,-5.80078125,137.713623046875
2021-09-28 21:54:53.806530,-0.04931640625,-0.04638671875,1.43798828125,13.5736083984375,-5.8721923828125,137.5872802734375
2021-09-28 21:54:53.816465,0.00927734375,0.0107421875,1.70556640625,13.6395263671875,-5.69091796875,136.900634765625
2021-09-28 21:54:53.826542,0.06103515625,-0.01416015625,1.39599609375,13.8043212890625,-5.3448486328125,135.8074951171875
2021-09-28 21:54:53.836463,0.0068359375,0.046875,1.064453125,13.765869140625,-5.0701904296875,134.5440673828125
2021-09-28 21:54:53.846395,-0.14013671875,0.12353515625,0.4970703125,13.7164306640625,-4.8614501953125,133.30810546875
2021-09-28 21:54:53.856492,-0.17529296875,0.10693359375,0.28564453125,13.7603759765625,-4.669189453125,132.0831298828125
2021-09-28 21:54:53.866562,-0.11376953125,0.03662109375,0.0888671875,13.9306640625,-4.493408203125,131.0174560546875
2021-09-28 21:54:53.876393,0.0517578125,0.0625,0.55517578125,14.1064453125,-4.3121337890625,130.3472900390625
2021-09-28 21:54:53.886324,0.1357421875,0.03857421875,1.16748046875,14.1888427734375,-4.1802978515625,130.0506591796875
2021-09-28 21:54:53.896266,0.0517578125,-0.00048828125,1.04150390625,14.205322265625,-4.15283203125,130.0946044921875
2021-09-28 21:54:53.906269,-0.01904296875,0.24755859375,1.40673828125,14.2327880859375,-4.2352294921875,130.5230712890625
2021-09-28 21:54:53.916124,0.0322265625,-0.16357421875,2.310546875,14.2327880859375,-4.4219970703125,131.3250732421875
